Male,Female,Image,Name,ImagePriming,NamePriming,thisN,thisTrialN,thisRepN,key_resp.keys,key_resp.rt,key_resp.duration,key_resp_3.keys,key_resp_3.rt,key_resp_3.duration,training.thisRepN,training.thisTrialN,training.thisN,training.thisIndex,priming.thisRepN,priming.thisTrialN,priming.thisN,priming.thisIndex,thisRow.t,notes,training_block.started,MAN.started,WOMAN.started,pic.started,key_resp.started,error_feedback.started,error_feedback.stopped,training_block.stopped,training.key_resp.keys,training.key_resp.rt,training.key_resp.duration,priming_block.started,MAN_3.started,WOMAN_3.started,name_2.started,key_resp_3.started,priming_block.stopped,priming.key_resp_3.keys,priming.key_resp_3.rt,priming.key_resp_3.duration,pic_2.started,name_2.stopped,participant,session,date,expName,expVersion,psychopyVersion,frameRate,expStart,
กฤษณะ,กาญจนา,men.png,กฤษณะ,men.png,กฤษณะ,0,0,0,j,2.242127300007269,None,,,,0,0,0,0,,,,,0.041204300010576844,,0.032627200009301305,0.041204300010576844,0.041204300010576844,0.041204300010576844,0.041204300010576844,0.041204300010576844,0.041204300010576844,2.304702200111933,j,2.242127300007269,None,,,,,,,,,,,,065548,001,2025-09-25_16h31.20.300,Priming_gender,,2025.1.1,60.09485371178165,2025-09-25 16h31.23.027200 +0700,
กฤษณะ,กาญจนา,men.png,กฤษณะ,men.png,กฤษณะ,1,1,1,j,0.9160994000267237,None,,,,1,1,1,0,,,,,2.3271068000467494,,2.3208523000357673,2.3271068000467494,2.3271068000467494,2.3271068000467494,2.3271068000467494,2.3271068000467494,2.3271068000467494,3.247759100049734,j,0.9160994000267237,None,,,,,,,,,,,,065548,001,2025-09-25_16h31.20.300,Priming_gender,,2025.1.1,60.09485371178165,2025-09-25 16h31.23.027200 +0700,
นเรศ,พิมพ์ใจ,women.png,นเรศ,men.png,นเรศ,2,2,0,k,0.6638103000586852,None,,,,0,2,2,1,,,,,3.278363100020215,,3.272892100038007,3.278363100020215,3.278363100020215,3.278363100020215,3.278363100020215,3.278363100020215,3.278363100020215,3.9477391000837088,k,0.6638103000586852,None,,,,,,,,,,,,065548,001,2025-09-25_16h31.20.300,Priming_gender,,2025.1.1,60.09485371178165,2025-09-25 16h31.23.027200 +0700,
กฤษณะ,กาญจนา,men.png,กฤษณะ,men.png,กฤษณะ,3,3,2,k,0.36913079989608377,None,,,,2,3,3,0,,,,,3.9708935000235215,,3.965516300057061,3.9708935000235215,3.9708935000235215,3.9708935000235215,3.9708935000235215,3.9708935000235215,3.9708935000235215,4.346458900021389,k,0.36913079989608377,None,,,,,,,,,,,,065548,001,2025-09-25_16h31.20.300,Priming_gender,,2025.1.1,60.09485371178165,2025-09-25 16h31.23.027200 +0700,
กฤษณะ,กาญจนา,men.png,กฤษณะ,men.png,กฤษณะ,4,4,3,k,0.48868129996117204,None,,,,3,4,4,0,,,,,4.370861600036733,,4.364548600045964,4.370861600036733,4.370861600036733,4.370861600036733,4.370861600036733,4.370861600036733,4.370861600036733,4.8641650000354275,k,0.48868129996117204,None,,,,,,,,,,,,065548,001,2025-09-25_16h31.20.300,Priming_gender,,2025.1.1,60.09485371178165,2025-09-25 16h31.23.027200 +0700,
กฤษณะ,กาญจนา,men.png,กฤษณะ,men.png,กฤษณะ,5,5,4,k,0.1936812000349164,None,,,,4,5,5,0,,,,,4.886467200005427,,4.880381599999964,4.886467200005427,4.886467200005427,4.886467200005427,4.886467200005427,4.886467200005427,4.886467200005427,5.080927400034852,k,0.1936812000349164,None,,,,,,,,,,,,065548,001,2025-09-25_16h31.20.300,Priming_gender,,2025.1.1,60.09485371178165,2025-09-25 16h31.23.027200 +0700,
นเรศ,พิมพ์ใจ,women.png,นเรศ,men.png,นเรศ,6,6,1,k,0.12099240010138601,None,,,,1,6,6,1,,,,,5.106474700034596,,5.100245400099084,5.106474700034596,5.106474700034596,5.106474700034596,5.106474700034596,5.106474700034596,5.106474700034596,5.229453100007959,k,0.12099240010138601,None,,,,,,,,,,,,065548,001,2025-09-25_16h31.20.300,Priming_gender,,2025.1.1,60.09485371178165,2025-09-25 16h31.23.027200 +0700,
นเรศ,พิมพ์ใจ,women.png,นเรศ,men.png,นเรศ,7,7,2,k,0.1404457000317052,None,,,,2,7,7,1,,,,,5.253315400099382,,5.24776090006344,5.253315400099382,5.253315400099382,5.253315400099382,5.253315400099382,5.253315400099382,5.253315400099382,5.396685900050215,k,0.1404457000317052,None,,,,,,,,,,,,065548,001,2025-09-25_16h31.20.300,Priming_gender,,2025.1.1,60.09485371178165,2025-09-25 16h31.23.027200 +0700,
กฤษณะ,กาญจนา,men.png,กฤษณะ,men.png,กฤษณะ,8,8,5,k,0.111360999988392,None,,,,5,8,8,0,,,,,5.421509000007063,,5.415179200004786,5.421509000007063,5.421509000007063,5.421509000007063,5.421509000007063,5.421509000007063,5.421509000007063,5.546901700086892,k,0.111360999988392,None,,,,,,,,,,,,065548,001,2025-09-25_16h31.20.300,Priming_gender,,2025.1.1,60.09485371178165,2025-09-25 16h31.23.027200 +0700,
กฤษณะ,กาญจนา,men.png,กฤษณะ,men.png,กฤษณะ,9,9,6,j,0.1887402000138536,None,,,,6,9,9,0,,,,,5.569024600088596,,5.56458050000947,5.569024600088596,5.569024600088596,5.569024600088596,5.569024600088596,5.569024600088596,5.569024600088596,5.763173400075175,j,0.1887402000138536,None,,,,,,,,,,,,065548,001,2025-09-25_16h31.20.300,Priming_gender,,2025.1.1,60.09485371178165,2025-09-25 16h31.23.027200 +0700,
นเรศ,พิมพ์ใจ,women.png,นเรศ,men.png,นเรศ,10,10,3,j,0.422517400002107,None,,,,3,10,10,1,,,,,5.786221500020474,,5.781191100017168,5.786221500020474,5.786221500020474,5.786221500020474,5.786221500020474,5.786221500020474,5.786221500020474,6.212489600060508,j,0.422517400002107,None,,,,,,,,,,,,065548,001,2025-09-25_16h31.20.300,Priming_gender,,2025.1.1,60.09485371178165,2025-09-25 16h31.23.027200 +0700,
กฤษณะ,กาญจนา,men.png,กฤษณะ,men.png,กฤษณะ,11,11,7,k,0.163237200002186,None,,,,7,11,11,0,,,,,6.234374200110324,,6.229506100062281,6.234374200110324,6.234374200110324,6.234374200110324,6.234374200110324,6.234374200110324,6.234374200110324,6.4132057999959216,k,0.163237200002186,None,,,,,,,,,,,,065548,001,2025-09-25_16h31.20.300,Priming_gender,,2025.1.1,60.09485371178165,2025-09-25 16h31.23.027200 +0700,
กฤษณะ,กาญจนา,men.png,กฤษณะ,men.png,กฤษณะ,12,12,8,j,0.030403700075112283,None,,,,8,12,12,0,,,,,6.436385500011966,,6.4316521000582725,6.436385500011966,6.436385500011966,6.436385500011966,6.436385500011966,6.436385500011966,6.436385500011966,6.479409800027497,j,0.030403700075112283,None,,,,,,,,,,,,065548,001,2025-09-25_16h31.20.300,Priming_gender,,2025.1.1,60.09485371178165,2025-09-25 16h31.23.027200 +0700,
นเรศ,พิมพ์ใจ,women.png,นเรศ,men.png,นเรศ,13,13,4,k,0.21598740003537387,None,,,,4,13,13,1,,,,,6.5016223000129685,,6.496623600018211,6.5016223000129685,6.5016223000129685,6.5016223000129685,6.5016223000129685,6.5016223000129685,6.5016223000129685,6.729906400083564,k,0.21598740003537387,None,,,,,,,,,,,,065548,001,2025-09-25_16h31.20.300,Priming_gender,,2025.1.1,60.09485371178165,2025-09-25 16h31.23.027200 +0700,
กฤษณะ,กาญจนา,men.png,กฤษณะ,men.png,กฤษณะ,14,14,9,j,0.18902139994315803,None,,,,9,14,14,0,,,,,6.754217800102197,,6.748556100064889,6.754217800102197,6.754217800102197,6.754217800102197,6.754217800102197,6.754217800102197,6.754217800102197,6.9466902000131086,j,0.18902139994315803,None,,,,,,,,,,,,065548,001,2025-09-25_16h31.20.300,Priming_gender,,2025.1.1,60.09485371178165,2025-09-25 16h31.23.027200 +0700,
นเรศ,พิมพ์ใจ,women.png,นเรศ,men.png,นเรศ,15,15,5,k,0.1672598000150174,None,,,,5,15,15,1,,,,,6.970122300088406,,6.965199300087988,6.970122300088406,6.970122300088406,6.970122300088406,6.970122300088406,6.970122300088406,6.970122300088406,7.146821500035003,k,0.1672598000150174,None,,,,,,,,,,,,065548,001,2025-09-25_16h31.20.300,Priming_gender,,2025.1.1,60.09485371178165,2025-09-25 16h31.23.027200 +0700,
นเรศ,พิมพ์ใจ,women.png,นเรศ,men.png,นเรศ,16,16,6,j,0.07526099996175617,None,,,,6,16,16,1,,,,,7.169914200087078,,7.164429500000551,7.169914200087078,7.169914200087078,7.169914200087078,7.169914200087078,7.169914200087078,7.169914200087078,7.246965300058946,j,0.07526099996175617,None,,,,,,,,,,,,065548,001,2025-09-25_16h31.20.300,Priming_gender,,2025.1.1,60.09485371178165,2025-09-25 16h31.23.027200 +0700,
นเรศ,พิมพ์ใจ,women.png,นเรศ,men.png,นเรศ,17,17,7,k,0.1470233000582084,None,,,,7,17,17,1,,,,,7.2708673001034185,,7.265529900090769,7.2708673001034185,7.2708673001034185,7.2708673001034185,7.2708673001034185,7.2708673001034185,7.2708673001034185,7.429558900068514,k,0.1470233000582084,None,,,,,,,,,,,,065548,001,2025-09-25_16h31.20.300,Priming_gender,,2025.1.1,60.09485371178165,2025-09-25 16h31.23.027200 +0700,
นเรศ,พิมพ์ใจ,women.png,นเรศ,men.png,นเรศ,18,18,8,j,0.14805770001839846,None,,,,8,18,18,1,,,,,7.452826100052334,,7.4477558000944555,7.452826100052334,7.452826100052334,7.452826100052334,7.452826100052334,7.452826100052334,7.452826100052334,7.6128952000290155,j,0.14805770001839846,None,,,,,,,,,,,,065548,001,2025-09-25_16h31.20.300,Priming_gender,,2025.1.1,60.09485371178165,2025-09-25 16h31.23.027200 +0700,
กฤษณะ,กาญจนา,men.png,กฤษณะ,men.png,กฤษณะ,19,19,10,k,0.23153079999610782,None,,,,10,19,19,0,,,,,7.635563000105321,,7.630600500036962,7.635563000105321,7.635563000105321,7.635563000105321,7.635563000105321,7.635563000105321,7.635563000105321,7.879284600028768,k,0.23153079999610782,None,,,,,,,,,,,,065548,001,2025-09-25_16h31.20.300,Priming_gender,,2025.1.1,60.09485371178165,2025-09-25 16h31.23.027200 +0700,
กฤษณะ,กาญจนา,men.png,กฤษณะ,men.png,กฤษณะ,20,20,11,j,0.23563640005886555,None,,,,11,20,20,0,,,,,7.902142400038429,,7.897380400099792,7.902142400038429,7.902142400038429,7.902142400038429,7.902142400038429,7.902142400038429,7.902142400038429,8.146105500054546,j,0.23563640005886555,None,,,,,,,,,,,,065548,001,2025-09-25_16h31.20.300,Priming_gender,,2025.1.1,60.09485371178165,2025-09-25 16h31.23.027200 +0700,
นเรศ,พิมพ์ใจ,women.png,นเรศ,men.png,นเรศ,21,21,9,k,0.1587759000249207,None,,,,9,21,21,1,,,,,8.168944400036708,,8.163798600086011,8.168944400036708,8.168944400036708,8.168944400036708,8.168944400036708,8.168944400036708,8.168944400036708,8.329925400088541,k,0.1587759000249207,None,,,,,,,,,,,,065548,001,2025-09-25_16h31.20.300,Priming_gender,,2025.1.1,60.09485371178165,2025-09-25 16h31.23.027200 +0700,
นเรศ,พิมพ์ใจ,women.png,นเรศ,men.png,นเรศ,22,22,10,j,0.22117279993835837,None,,,,10,22,22,1,,,,,8.350721499999054,,8.34586990007665,8.350721499999054,8.350721499999054,8.350721499999054,8.350721499999054,8.350721499999054,8.350721499999054,8.580429900088347,j,0.22117279993835837,None,,,,,,,,,,,,065548,001,2025-09-25_16h31.20.300,Priming_gender,,2025.1.1,60.09485371178165,2025-09-25 16h31.23.027200 +0700,
นเรศ,พิมพ์ใจ,women.png,นเรศ,men.png,นเรศ,23,23,11,k,0.22415109991561621,None,,,,11,23,23,1,,,,,8.603792100097053,,8.598535900004208,8.603792100097053,8.603792100097053,8.603792100097053,8.603792100097053,8.603792100097053,8.603792100097053,8.830108600086533,k,0.22415109991561621,None,,,,,,,,,,,,065548,001,2025-09-25_16h31.20.300,Priming_gender,,2025.1.1,60.09485371178165,2025-09-25 16h31.23.027200 +0700,
กฤษณะ,กาญจนา,men.png,กฤษณะ,men.png,กฤษณะ,24,24,12,j,0.2348028999986127,None,,,,12,24,24,0,,,,,8.853656699997373,,8.84839820000343,8.853656699997373,8.853656699997373,8.853656699997373,8.853656699997373,8.853656699997373,8.853656699997373,9.096042100107297,j,0.2348028999986127,None,,,,,,,,,,,,065548,001,2025-09-25_16h31.20.300,Priming_gender,,2025.1.1,60.09485371178165,2025-09-25 16h31.23.027200 +0700,
นเรศ,พิมพ์ใจ,women.png,นเรศ,men.png,นเรศ,25,25,12,j,0.1313419999787584,None,,,,12,25,25,1,,,,,9.11975480010733,,9.11413270002231,9.11975480010733,9.11975480010733,9.11975480010733,9.11975480010733,9.11975480010733,9.11975480010733,9.262512300047092,j,0.1313419999787584,None,,,,,,,,,,,,065548,001,2025-09-25_16h31.20.300,Priming_gender,,2025.1.1,60.09485371178165,2025-09-25 16h31.23.027200 +0700,
กฤษณะ,กาญจนา,men.png,กฤษณะ,men.png,กฤษณะ,26,26,13,j,0.08430220000445843,None,,,,13,26,26,0,,,,,9.285837700008415,,9.280743000097573,9.285837700008415,9.285837700008415,9.285837700008415,9.285837700008415,9.285837700008415,9.285837700008415,9.379653900046833,j,0.08430220000445843,None,,,,,,,,,,,,065548,001,2025-09-25_16h31.20.300,Priming_gender,,2025.1.1,60.09485371178165,2025-09-25 16h31.23.027200 +0700,
นเรศ,พิมพ์ใจ,women.png,นเรศ,men.png,นเรศ,27,27,13,k,0.17262500000651926,None,,,,13,27,27,1,,,,,9.402224500081502,,9.397300700074993,9.402224500081502,9.402224500081502,9.402224500081502,9.402224500081502,9.402224500081502,9.402224500081502,9.579026699997485,k,0.17262500000651926,None,,,,,,,,,,,,065548,001,2025-09-25_16h31.20.300,Priming_gender,,2025.1.1,60.09485371178165,2025-09-25 16h31.23.027200 +0700,
นเรศ,พิมพ์ใจ,women.png,นเรศ,men.png,นเรศ,28,28,14,j,0.11845740000717342,None,,,,14,28,28,1,,,,,9.60173080000095,,9.59651250008028,9.60173080000095,9.60173080000095,9.60173080000095,9.60173080000095,9.60173080000095,9.60173080000095,9.729166700039059,j,0.11845740000717342,None,,,,,,,,,,,,065548,001,2025-09-25_16h31.20.300,Priming_gender,,2025.1.1,60.09485371178165,2025-09-25 16h31.23.027200 +0700,
กฤษณะ,กาญจนา,men.png,กฤษณะ,men.png,กฤษณะ,29,29,14,k,0.23536079993937165,None,,,,14,29,29,0,,,,,9.75320640008431,,9.748270000098273,9.75320640008431,9.75320640008431,9.75320640008431,9.75320640008431,9.75320640008431,9.75320640008431,9.996466100099497,k,0.23536079993937165,None,,,,,,,,,,,,065548,001,2025-09-25_16h31.20.300,Priming_gender,,2025.1.1,60.09485371178165,2025-09-25 16h31.23.027200 +0700,
นเรศ,พิมพ์ใจ,women.png,นเรศ,men.png,นเรศ,30,30,15,j,0.23794180003460497,None,,,,15,30,30,1,,,,,10.019573000026867,,10.015056500094943,10.019573000026867,10.019573000026867,10.019573000026867,10.019573000026867,10.019573000026867,10.019573000026867,10.262873400002718,j,0.23794180003460497,None,,,,,,,,,,,,065548,001,2025-09-25_16h31.20.300,Priming_gender,,2025.1.1,60.09485371178165,2025-09-25 16h31.23.027200 +0700,
กฤษณะ,กาญจนา,men.png,กฤษณะ,men.png,กฤษณะ,31,31,15,j,0.3264265999896452,None,,,,15,31,31,0,,,,,10.284551999997348,,10.279912800062448,10.284551999997348,10.284551999997348,10.284551999997348,10.284551999997348,10.284551999997348,10.284551999997348,10.61690870008897,j,0.3264265999896452,None,,,,,,,,,,,,065548,001,2025-09-25_16h31.20.300,Priming_gender,,2025.1.1,60.09485371178165,2025-09-25 16h31.23.027200 +0700,
กฤษณะ,กาญจนา,men.png,กฤษณะ,men.png,กฤษณะ,32,32,16,k,0.12352799996733665,None,,,,16,32,32,0,,,,,10.653648400097154,,10.642542200046591,10.653648400097154,10.653648400097154,10.653648400097154,10.653648400097154,10.653648400097154,10.653648400097154,10.784192000050098,k,0.12352799996733665,None,,,,,,,,,,,,065548,001,2025-09-25_16h31.20.300,Priming_gender,,2025.1.1,60.09485371178165,2025-09-25 16h31.23.027200 +0700,
นเรศ,พิมพ์ใจ,women.png,นเรศ,men.png,นเรศ,33,33,16,j,0.0669562000548467,None,,,,16,33,33,1,,,,,10.824019500054419,,10.812307800049894,10.824019500054419,10.824019500054419,10.824019500054419,10.824019500054419,10.824019500054419,10.824019500054419,10.903142400085926,j,0.0669562000548467,None,,,,,,,,,,,,065548,001,2025-09-25_16h31.20.300,Priming_gender,,2025.1.1,60.09485371178165,2025-09-25 16h31.23.027200 +0700,
กฤษณะ,กาญจนา,men.png,กฤษณะ,men.png,กฤษณะ,34,34,17,k,0.20917290006764233,None,,,,17,34,34,0,,,,,10.942304800031707,,10.930227700038813,10.942304800031707,10.942304800031707,10.942304800031707,10.942304800031707,10.942304800031707,10.942304800031707,11.166833100025542,k,0.20917290006764233,None,,,,,,,,,,,,065548,001,2025-09-25_16h31.20.300,Priming_gender,,2025.1.1,60.09485371178165,2025-09-25 16h31.23.027200 +0700,
นเรศ,พิมพ์ใจ,women.png,นเรศ,men.png,นเรศ,35,35,17,j,0.16885080002248287,None,,,,17,35,35,1,,,,,11.203014800092205,,11.191667000064626,11.203014800092205,11.203014800092205,11.203014800092205,11.203014800092205,11.203014800092205,11.203014800092205,11.378906500060111,j,0.16885080002248287,None,,,,,,,,,,,,065548,001,2025-09-25_16h31.20.300,Priming_gender,,2025.1.1,60.09485371178165,2025-09-25 16h31.23.027200 +0700,
นเรศ,พิมพ์ใจ,women.png,นเรศ,men.png,นเรศ,36,36,18,j,0.09304030006751418,None,,,,18,36,36,1,,,,,11.401149100041948,,11.395637500099838,11.401149100041948,11.401149100041948,11.401149100041948,11.401149100041948,11.401149100041948,11.401149100041948,11.496259700041264,j,0.09304030006751418,None,,,,,,,,,,,,065548,001,2025-09-25_16h31.20.300,Priming_gender,,2025.1.1,60.09485371178165,2025-09-25 16h31.23.027200 +0700,
นเรศ,พิมพ์ใจ,women.png,นเรศ,men.png,นเรศ,37,37,19,j,0.09557549993041903,None,,,,19,37,37,1,,,,,11.51829630008433,,11.513508400064893,11.51829630008433,11.51829630008433,11.51829630008433,11.51829630008433,11.51829630008433,11.51829630008433,11.629046800080687,j,0.09557549993041903,None,,,,,,,,,,,,065548,001,2025-09-25_16h31.20.300,Priming_gender,,2025.1.1,60.09485371178165,2025-09-25 16h31.23.027200 +0700,
กฤษณะ,กาญจนา,men.png,กฤษณะ,men.png,กฤษณะ,38,38,18,k,0.08057900005951524,None,,,,18,38,38,0,,,,,11.64890390005894,,11.643719700048678,11.64890390005894,11.64890390005894,11.64890390005894,11.64890390005894,11.64890390005894,11.64890390005894,11.746107600047253,k,0.08057900005951524,None,,,,,,,,,,,,065548,001,2025-09-25_16h31.20.300,Priming_gender,,2025.1.1,60.09485371178165,2025-09-25 16h31.23.027200 +0700,
กฤษณะ,กาญจนา,men.png,กฤษณะ,men.png,กฤษณะ,39,39,19,j,0.09389010001905262,None,,,,19,39,39,0,,,,,11.767591100069694,,11.762918100110255,11.767591100069694,11.767591100069694,11.767591100069694,11.767591100069694,11.767591100069694,11.767591100069694,11.862418500008062,j,0.09389010001905262,None,,,,,,,,,,,,065548,001,2025-09-25_16h31.20.300,Priming_gender,,2025.1.1,60.09485371178165,2025-09-25 16h31.23.027200 +0700,
None,None,None,กาญจนา,men.png,กาญจนา,0,0,0,,,,k,0.15351039997767657,None,,,,,0,0,0,10,11.910790000110865,,,,,,,,,,,,,11.899468400049955,11.910790000110865,11.910790000110865,11.910790000110865,11.910790000110865,12.079265000065789,k,0.15351039997767657,None,,,065548,001,2025-09-25_16h31.20.300,Priming_gender,,2025.1.1,60.09485371178165,2025-09-25 16h31.23.027200 +0700,
None,None,None,None,women.png,พิสิฐ,1,1,0,,,,,,,,,,,0,1,1,29,12.110521399998106,,,,,,,,,,,,,12.10168100008741,12.110521399998106,12.110521399998106,12.110521399998106,12.110521399998106,,,,,12.57860690006055,12.612592700053938,,,,,,,,,
