Male,Female,Image,Name,ImagePriming,NamePriming,thisN,thisTrialN,thisRepN,key_resp.keys,key_resp.rt,key_resp.duration,training.thisRepN,training.thisTrialN,training.thisN,training.thisIndex,thisRow.t,notes,training_block.started,MAN.started,WOMAN.started,pic.started,key_resp.started,training_block.stopped,training.key_resp.keys,training.key_resp.rt,training.key_resp.duration,participant,session,date,expName,expVersion,psychopyVersion,frameRate,expStart,
กฤษณะ,กาญจนา,men.png,กฤษณะ,men.png,กฤษณะ,0,0,0,j,0.824933800031431,None,0,0,0,0,0.03685669996775687,,0.02928999997675419,0.03685669996775687,0.03685669996775687,0.03685669996775687,0.03685669996775687,0.8688648000825197,j,0.824933800031431,None,203754,001,2025-09-25_16h32.26.733,Priming_gender,,2025.1.1,59.96559176068282,2025-09-25 16h32.28.954820 +0700,
กฤษณะ,กาญจนา,men.png,กฤษณะ,men.png,กฤษณะ,1,1,1,k,0.5146727000828832,None,1,1,1,0,0.8929187000030652,,0.8864380000159144,0.8929187000030652,0.8929187000030652,0.8929187000030652,0.8929187000030652,1.416399099980481,k,0.5146727000828832,None,203754,001,2025-09-25_16h32.26.733,Priming_gender,,2025.1.1,59.96559176068282,2025-09-25 16h32.28.954820 +0700,
นเรศ,พิมพ์ใจ,women.png,นเรศ,men.png,นเรศ,2,2,0,k,0.28445450006984174,None,0,2,2,1,1.4410713000688702,,1.4346175000537187,1.4410713000688702,1.4410713000688702,1.4410713000688702,1.4410713000688702,1.7318097000243142,k,0.28445450006984174,None,203754,001,2025-09-25_16h32.26.733,Priming_gender,,2025.1.1,59.96559176068282,2025-09-25 16h32.28.954820 +0700,
นเรศ,พิมพ์ใจ,women.png,นเรศ,men.png,นเรศ,3,3,1,k,0.1110876000020653,None,1,3,3,1,1.7558738000225276,,1.7498396000592038,1.7558738000225276,1.7558738000225276,1.7558738000225276,1.7558738000225276,1.8829907000763342,k,0.1110876000020653,None,203754,001,2025-09-25_16h32.26.733,Priming_gender,,2025.1.1,59.96559176068282,2025-09-25 16h32.28.954820 +0700,
กฤษณะ,กาญจนา,men.png,กฤษณะ,men.png,กฤษณะ,4,4,2,k,0.2574627000140026,None,2,4,4,0,1.9081002000020817,,1.9014555000467226,1.9081002000020817,1.9081002000020817,1.9081002000020817,1.9081002000020817,2.1665114000206813,k,0.2574627000140026,None,203754,001,2025-09-25_16h32.26.733,Priming_gender,,2025.1.1,59.96559176068282,2025-09-25 16h32.28.954820 +0700,
กฤษณะ,กาญจนา,men.png,กฤษณะ,men.png,กฤษณะ,5,5,3,k,0.11273809999693185,None,3,5,5,0,2.191488999989815,,2.184673700015992,2.191488999989815,2.191488999989815,2.191488999989815,2.191488999989815,2.317002500058152,k,0.11273809999693185,None,203754,001,2025-09-25_16h32.26.733,Priming_gender,,2025.1.1,59.96559176068282,2025-09-25 16h32.28.954820 +0700,
นเรศ,พิมพ์ใจ,women.png,นเรศ,men.png,นเรศ,6,6,2,k,0.10790529998484999,None,2,6,6,1,2.339829400065355,,2.333476800005883,2.339829400065355,2.339829400065355,2.339829400065355,2.339829400065355,2.448963399976492,k,0.10790529998484999,None,203754,001,2025-09-25_16h32.26.733,Priming_gender,,2025.1.1,59.96559176068282,2025-09-25 16h32.28.954820 +0700,
นเรศ,พิมพ์ใจ,women.png,นเรศ,men.png,นเรศ,7,7,3,k,0.08858710003551096,None,3,7,7,1,2.4741769999964163,,2.4670231000054628,2.4741769999964163,2.4741769999964163,2.4741769999964163,2.4741769999964163,2.5660861000651494,k,0.08858710003551096,None,203754,001,2025-09-25_16h32.26.733,Priming_gender,,2025.1.1,59.96559176068282,2025-09-25 16h32.28.954820 +0700,
กฤษณะ,กาญจนา,men.png,กฤษณะ,men.png,กฤษณะ,8,8,4,j,0.08148019993677735,None,4,8,8,0,2.5892124000238255,,2.5828620999818668,2.5892124000238255,2.5892124000238255,2.5892124000238255,2.5892124000238255,2.682794400025159,j,0.08148019993677735,None,203754,001,2025-09-25_16h32.26.733,Priming_gender,,2025.1.1,59.96559176068282,2025-09-25 16h32.28.954820 +0700,
นเรศ,พิมพ์ใจ,women.png,นเรศ,men.png,นเรศ,9,9,4,j,0.1673248999286443,None,4,9,9,1,2.70673049998004,,2.7004046000074595,2.70673049998004,2.70673049998004,2.70673049998004,2.70673049998004,2.882982600014657,j,0.1673248999286443,None,203754,001,2025-09-25_16h32.26.733,Priming_gender,,2025.1.1,59.96559176068282,2025-09-25 16h32.28.954820 +0700,
นเรศ,พิมพ์ใจ,women.png,นเรศ,men.png,นเรศ,10,10,5,j,0.08474289998412132,None,5,10,10,1,2.907603800063953,,2.901433299994096,2.907603800063953,2.907603800063953,2.907603800063953,2.907603800063953,2.9993876999942586,j,0.08474289998412132,None,203754,001,2025-09-25_16h32.26.733,Priming_gender,,2025.1.1,59.96559176068282,2025-09-25 16h32.28.954820 +0700,
กฤษณะ,กาญจนา,men.png,กฤษณะ,men.png,กฤษณะ,11,11,5,j,0.17393699998501688,None,5,11,11,0,3.024192800046876,,3.017654399969615,3.024192800046876,3.024192800046876,3.024192800046876,3.024192800046876,3.198745800065808,j,0.17393699998501688,None,203754,001,2025-09-25_16h32.26.733,Priming_gender,,2025.1.1,59.96559176068282,2025-09-25 16h32.28.954820 +0700,
กฤษณะ,กาญจนา,men.png,กฤษณะ,men.png,กฤษณะ,12,12,6,j,0.110822300077416,None,6,12,12,0,3.223575600073673,,3.216781700029969,3.223575600073673,3.223575600073673,3.223575600073673,3.223575600073673,3.3499627000419423,j,0.110822300077416,None,203754,001,2025-09-25_16h32.26.733,Priming_gender,,2025.1.1,59.96559176068282,2025-09-25 16h32.28.954820 +0700,
นเรศ,พิมพ์ใจ,women.png,นเรศ,men.png,นเรศ,13,13,6,j,0.05221949995029718,None,6,13,13,1,3.374456800054759,,3.3684134000213817,3.374456800054759,3.374456800054759,3.374456800054759,3.374456800054759,3.432364400010556,j,0.05221949995029718,None,203754,001,2025-09-25_16h32.26.733,Priming_gender,,2025.1.1,59.96559176068282,2025-09-25 16h32.28.954820 +0700,
นเรศ,พิมพ์ใจ,women.png,นเรศ,men.png,นเรศ,14,14,7,j,0.0797123999800533,None,7,14,14,1,3.4578218000242487,,3.450736799975857,3.4578218000242487,3.4578218000242487,3.4578218000242487,3.4578218000242487,3.549248900031671,j,0.0797123999800533,None,203754,001,2025-09-25_16h32.26.733,Priming_gender,,2025.1.1,59.96559176068282,2025-09-25 16h32.28.954820 +0700,
นเรศ,พิมพ์ใจ,women.png,นเรศ,men.png,นเรศ,15,15,8,j,0.076205899938941,None,8,15,15,1,3.5734251000685617,,3.5671029000077397,3.5734251000685617,3.5734251000685617,3.5734251000685617,3.5734251000685617,3.665330999996513,j,0.076205899938941,None,203754,001,2025-09-25_16h32.26.733,Priming_gender,,2025.1.1,59.96559176068282,2025-09-25 16h32.28.954820 +0700,
กฤษณะ,กาญจนา,men.png,กฤษณะ,men.png,กฤษณะ,16,16,7,k,0.12625610001850873,None,7,16,16,0,3.688888299977407,,3.683567799977027,3.688888299977407,3.688888299977407,3.688888299977407,3.688888299977407,3.832540399977006,k,0.12625610001850873,None,203754,001,2025-09-25_16h32.26.733,Priming_gender,,2025.1.1,59.96559176068282,2025-09-25 16h32.28.954820 +0700,
นเรศ,พิมพ์ใจ,women.png,นเรศ,men.png,นเรศ,17,17,9,k,0.10733090003486723,None,9,17,17,1,3.8560321000404656,,3.8506000000052154,3.8560321000404656,3.8560321000404656,3.8560321000404656,3.8560321000404656,3.96557910006959,k,0.10733090003486723,None,203754,001,2025-09-25_16h32.26.733,Priming_gender,,2025.1.1,59.96559176068282,2025-09-25 16h32.28.954820 +0700,
กฤษณะ,กาญจนา,men.png,กฤษณะ,men.png,กฤษณะ,18,18,8,k,0.10044810001272708,None,8,18,18,0,3.988821299979463,,3.9833389000268653,3.988821299979463,3.988821299979463,3.988821299979463,3.988821299979463,4.098420900059864,k,0.10044810001272708,None,203754,001,2025-09-25_16h32.26.733,Priming_gender,,2025.1.1,59.96559176068282,2025-09-25 16h32.28.954820 +0700,
กฤษณะ,กาญจนา,men.png,กฤษณะ,men.png,กฤษณะ,19,19,9,k,0.08339690009597689,None,9,19,19,0,4.122355500003323,,4.116698199999519,4.122355500003323,4.122355500003323,4.122355500003323,4.122355500003323,4.2154986000387,k,0.08339690009597689,None,203754,001,2025-09-25_16h32.26.733,Priming_gender,,2025.1.1,59.96559176068282,2025-09-25 16h32.28.954820 +0700,
กฤษณะ,กาญจนา,men.png,กฤษณะ,men.png,กฤษณะ,20,20,10,k,0.07329470000695437,None,10,20,20,0,4.238561999984086,,4.233265000046231,4.238561999984086,4.238561999984086,4.238561999984086,4.238561999984086,4.315563500043936,k,0.07329470000695437,None,203754,001,2025-09-25_16h32.26.733,Priming_gender,,2025.1.1,59.96559176068282,2025-09-25 16h32.28.954820 +0700,
นเรศ,พิมพ์ใจ,women.png,นเรศ,men.png,นเรศ,21,21,10,,,,10,21,21,1,4.33727210003417,,4.33212709997315,4.33727210003417,4.33727210003417,4.33727210003417,4.33727210003417,,,,,,,,,,,,,
