Male,Female,Image,Name,ImagePriming,NamePriming,ImageTrig,NameTrig,Trig,thisN,thisTrialN,thisRepN,key_resp.keys,key_resp.rt,key_resp.duration,key_resp_3.keys,key_resp_3.rt,key_resp_3.duration,training.thisRepN,training.thisTrialN,training.thisN,training.thisIndex,priming.thisRepN,priming.thisTrialN,priming.thisN,priming.thisIndex,thisRow.t,notes,training_Instruction.started,instruction_slide.started,instruction_continue.started,training_Instruction.stopped,instruction_continue.keys,instruction_continue.rt,instruction_continue.duration,training_block.started,MAN.started,WOMAN.started,pic.started,key_resp.started,training_block.stopped,training.key_resp.keys,training.key_resp.rt,training.key_resp.duration,priming_instruction.started,instruction_slide_2.started,instruction_continue_2.started,priming_instruction.stopped,instruction_continue_2.keys,instruction_continue_2.rt,instruction_continue_2.duration,priming_block.started,MAN_3.started,MAN_3_desc.started,WOMAN_3.started,WOMAN_3_desc.started,name_2.started,key_resp_3.started,pic_2.started,name_2.stopped,priming_block.stopped,priming.key_resp_3.keys,priming.key_resp_3.rt,priming.key_resp_3.duration,Ending.started,Ending.stopped,participant,session,date,expName,expVersion,psychopyVersion,frameRate,expStart,
,,,,,,,,,,,,,,,,,,,,,,,,,,,,0.0731000000378117,0.094543999992311,0.094543999992311,0.9812925000442192,space,0.8579654999775812,None,,,,,,,,,,,,,,,,,,,,,,,,,,,,,,,,208194,001,2025-09-26_06h03.42.476,Priming_gender,,2025.1.1,60.01644449127052,2025-09-26 06h03.46.333914 +0700,
กฤษณะ,กาญจนา,men.png,กฤษณะ,men.png,กฤษณะ,10,50,100,0,0,0,j,0.5157125999685377,None,,,,0,0,0,0,,,,,1.011690799961798,,,,,,,,,1.0019384999759495,1.011690799961798,1.011690799961798,1.011690799961798,1.011690799961798,1.5303919999860227,j,0.5157125999685377,None,,,,,,,,,,,,,,,,,,,,,,,208194,001,2025-09-26_06h03.42.476,Priming_gender,,2025.1.1,60.01644449127052,2025-09-26 06h03.46.333914 +0700,
กฤษณะ,กาญจนา,men.png,กฤษณะ,men.png,กฤษณะ,10,50,100,1,1,1,k,0.07813469995744526,None,,,,1,1,1,0,,,,,1.561559799942188,,,,,,,,,1.5434353000018746,1.561559799942188,1.561559799942188,1.561559799942188,1.561559799942188,1.6448269999818876,k,0.07813469995744526,None,,,,,,,,,,,,,,,,,,,,,,,208194,001,2025-09-26_06h03.42.476,Priming_gender,,2025.1.1,60.01644449127052,2025-09-26 06h03.46.333914 +0700,
กฤษณะ,กาญจนา,men.png,กฤษณะ,men.png,กฤษณะ,10,50,100,2,2,2,j,0.04430179996415973,None,,,,2,2,2,0,,,,,1.6780199999921024,,,,,,,,,1.6577255999436602,1.6780199999921024,1.6780199999921024,1.6780199999921024,1.6780199999921024,1.7290610999334604,j,0.04430179996415973,None,,,,,,,,,,,,,,,,,,,,,,,208194,001,2025-09-26_06h03.42.476,Priming_gender,,2025.1.1,60.01644449127052,2025-09-26 06h03.46.333914 +0700,
นเรศ,พิมพ์ใจ,women.png,นเรศ,men.png,นเรศ,10,51,101,3,3,0,k,0.050209600012749434,None,,,,0,3,3,1,,,,,1.7626974999438971,,,,,,,,,1.742357000010088,1.7626974999438971,1.7626974999438971,1.7626974999438971,1.7626974999438971,1.8289130999473855,k,0.050209600012749434,None,,,,,,,,,,,,,,,,,,,,,,,208194,001,2025-09-26_06h03.42.476,Priming_gender,,2025.1.1,60.01644449127052,2025-09-26 06h03.46.333914 +0700,
กฤษณะ,กาญจนา,men.png,กฤษณะ,men.png,กฤษณะ,10,50,100,4,4,3,j,0.017583100008778274,None,,,,3,4,4,0,,,,,1.8624584999633953,,,,,,,,,1.842371999984607,1.8624584999633953,1.8624584999633953,1.8624584999633953,1.8624584999633953,1.9117286000400782,j,0.017583100008778274,None,,,,,,,,,,,,,,,,,,,,,,,208194,001,2025-09-26_06h03.42.476,Priming_gender,,2025.1.1,60.01644449127052,2025-09-26 06h03.46.333914 +0700,
กฤษณะ,กาญจนา,men.png,กฤษณะ,men.png,กฤษณะ,10,50,100,5,5,4,k,0.032147199963219464,None,,,,4,5,5,0,,,,,1.9449421999743208,,,,,,,,,1.9249431999633089,1.9449421999743208,1.9449421999743208,1.9449421999743208,1.9449421999743208,1.9783960999920964,k,0.032147199963219464,None,,,,,,,,,,,,,,,,,,,,,,,208194,001,2025-09-26_06h03.42.476,Priming_gender,,2025.1.1,60.01644449127052,2025-09-26 06h03.46.333914 +0700,
นเรศ,พิมพ์ใจ,women.png,นเรศ,men.png,นเรศ,10,51,101,6,6,1,j,0.01081590005196631,None,,,,1,6,6,1,,,,,2.0115323000354692,,,,,,,,,1.9917878999840468,2.0115323000354692,2.0115323000354692,2.0115323000354692,2.0115323000354692,2.045149500016123,j,0.01081590005196631,None,,,,,,,,,,,,,,,,,,,,,,,208194,001,2025-09-26_06h03.42.476,Priming_gender,,2025.1.1,60.01644449127052,2025-09-26 06h03.46.333914 +0700,
นเรศ,พิมพ์ใจ,women.png,นเรศ,men.png,นเรศ,10,51,101,7,7,2,k,0.04921890003606677,None,,,,2,7,7,1,,,,,2.0781150000402704,,,,,,,,,2.0582083000335842,2.0781150000402704,2.0781150000402704,2.0781150000402704,2.0781150000402704,2.129915199941024,k,0.04921890003606677,None,,,,,,,,,,,,,,,,,,,,,,,208194,001,2025-09-26_06h03.42.476,Priming_gender,,2025.1.1,60.01644449127052,2025-09-26 06h03.46.333914 +0700,
นเรศ,พิมพ์ใจ,women.png,นเรศ,men.png,นเรศ,10,51,101,8,8,3,j,0.00964079995173961,None,,,,3,8,8,1,,,,,2.162731399992481,,,,,,,,,2.1433651000261307,2.162731399992481,2.162731399992481,2.162731399992481,2.162731399992481,2.1783513999544084,j,0.00964079995173961,None,,,,,,,,,,,,,,,,,,,,,,,208194,001,2025-09-26_06h03.42.476,Priming_gender,,2025.1.1,60.01644449127052,2025-09-26 06h03.46.333914 +0700,
นเรศ,พิมพ์ใจ,women.png,นเรศ,men.png,นเรศ,10,51,101,9,9,4,k,0.05139410006813705,None,,,,4,9,9,1,,,,,2.2115276999538764,,,,,,,,,2.191746799973771,2.2115276999538764,2.2115276999538764,2.2115276999538764,2.2115276999538764,2.2783361000474542,k,0.05139410006813705,None,,,,,,,,,,,,,,,,,,,,,,,208194,001,2025-09-26_06h03.42.476,Priming_gender,,2025.1.1,60.01644449127052,2025-09-26 06h03.46.333914 +0700,
กฤษณะ,กาญจนา,men.png,กฤษณะ,men.png,กฤษณะ,10,50,100,10,10,5,j,0.011158599983900785,None,,,,5,10,10,0,,,,,2.311669099959545,,,,,,,,,2.2915671999799088,2.311669099959545,2.311669099959545,2.311669099959545,2.311669099959545,2.328899099957198,j,0.011158599983900785,None,,,,,,,,,,,,,,,,,,,,,,,208194,001,2025-09-26_06h03.42.476,Priming_gender,,2025.1.1,60.01644449127052,2025-09-26 06h03.46.333914 +0700,
กฤษณะ,กาญจนา,men.png,กฤษณะ,men.png,กฤษณะ,10,50,100,11,11,6,k,0.05694570008199662,None,,,,6,11,11,0,,,,,2.3630048000486568,,,,,,,,,2.3422726000426337,2.3630048000486568,2.3630048000486568,2.3630048000486568,2.3630048000486568,2.4291888000443578,k,0.05694570008199662,None,,,,,,,,,,,,,,,,,,,,,,,208194,001,2025-09-26_06h03.42.476,Priming_gender,,2025.1.1,60.01644449127052,2025-09-26 06h03.46.333914 +0700,
กฤษณะ,กาญจนา,men.png,กฤษณะ,men.png,กฤษณะ,10,50,100,12,12,7,j,0.018005100078880787,None,,,,7,12,12,0,,,,,2.4622555000241846,,,,,,,,,2.442615299951285,2.4622555000241846,2.4622555000241846,2.4622555000241846,2.4622555000241846,2.49519909999799,j,0.018005100078880787,None,,,,,,,,,,,,,,,,,,,,,,,208194,001,2025-09-26_06h03.42.476,Priming_gender,,2025.1.1,60.01644449127052,2025-09-26 06h03.46.333914 +0700,
นเรศ,พิมพ์ใจ,women.png,นเรศ,men.png,นเรศ,10,51,101,13,13,5,k,0.034817200037650764,None,,,,5,13,13,1,,,,,2.5281541999429464,,,,,,,,,2.508572099963203,2.5281541999429464,2.5281541999429464,2.5281541999429464,2.5281541999429464,2.5781602000351995,k,0.034817200037650764,None,,,,,,,,,,,,,,,,,,,,,,,208194,001,2025-09-26_06h03.42.476,Priming_gender,,2025.1.1,60.01644449127052,2025-09-26 06h03.46.333914 +0700,
นเรศ,พิมพ์ใจ,women.png,นเรศ,men.png,นเรศ,10,51,101,14,14,6,j,0.026210200041532516,None,,,,6,14,14,1,,,,,2.6114156999392435,,,,,,,,,2.5919528999365866,2.6114156999392435,2.6114156999392435,2.6114156999392435,2.6114156999392435,2.644933999981731,j,0.026210200041532516,None,,,,,,,,,,,,,,,,,,,,,,,208194,001,2025-09-26_06h03.42.476,Priming_gender,,2025.1.1,60.01644449127052,2025-09-26 06h03.46.333914 +0700,
นเรศ,พิมพ์ใจ,women.png,นเรศ,men.png,นเรศ,10,51,101,15,15,7,k,0.08672150003258139,None,,,,7,15,15,1,,,,,2.678057200042531,,,,,,,,,2.658417999977246,2.678057200042531,2.678057200042531,2.678057200042531,2.678057200042531,2.778294499963522,k,0.08672150003258139,None,,,,,,,,,,,,,,,,,,,,,,,208194,001,2025-09-26_06h03.42.476,Priming_gender,,2025.1.1,60.01644449127052,2025-09-26 06h03.46.333914 +0700,
กฤษณะ,กาญจนา,men.png,กฤษณะ,men.png,กฤษณะ,10,50,100,16,16,8,j,0.03597069997340441,None,,,,8,16,16,0,,,,,2.811474399990402,,,,,,,,,2.791506699984893,2.811474399990402,2.811474399990402,2.811474399990402,2.811474399990402,2.86311629996635,j,0.03597069997340441,None,,,,,,,,,,,,,,,,,,,,,,,208194,001,2025-09-26_06h03.42.476,Priming_gender,,2025.1.1,60.01644449127052,2025-09-26 06h03.46.333914 +0700,
กฤษณะ,กาญจนา,men.png,กฤษณะ,men.png,กฤษณะ,10,50,100,17,17,9,k,0.04098900000099093,None,,,,9,17,17,0,,,,,2.91165479994379,,,,,,,,,2.876385699957609,2.91165479994379,2.91165479994379,2.91165479994379,2.91165479994379,2.963506000000052,k,0.04098900000099093,None,,,,,,,,,,,,,,,,,,,,,,,208194,001,2025-09-26_06h03.42.476,Priming_gender,,2025.1.1,60.01644449127052,2025-09-26 06h03.46.333914 +0700,
กฤษณะ,กาญจนา,men.png,กฤษณะ,men.png,กฤษณะ,10,50,100,18,18,10,j,0.016526999999769032,None,,,,10,18,18,0,,,,,3.0115647999336943,,,,,,,,,2.9769670999376103,3.0115647999336943,3.0115647999336943,3.0115647999336943,3.0115647999336943,3.0452256000135094,j,0.016526999999769032,None,,,,,,,,,,,,,,,,,,,,,,,208194,001,2025-09-26_06h03.42.476,Priming_gender,,2025.1.1,60.01644449127052,2025-09-26 06h03.46.333914 +0700,
กฤษณะ,กาญจนา,men.png,กฤษณะ,men.png,กฤษณะ,10,50,100,19,19,11,k,0.04645759996492416,None,,,,11,19,19,0,,,,,3.07882149994839,,,,,,,,,3.059012999990955,3.07882149994839,3.07882149994839,3.07882149994839,3.07882149994839,3.1296774999937043,k,0.04645759996492416,None,,,,,,,,,,,,,,,,,,,,,,,208194,001,2025-09-26_06h03.42.476,Priming_gender,,2025.1.1,60.01644449127052,2025-09-26 06h03.46.333914 +0700,
นเรศ,พิมพ์ใจ,women.png,นเรศ,men.png,นเรศ,10,51,101,20,20,8,j,0.05955360003281385,None,,,,8,20,20,1,,,,,3.1627771999919787,,,,,,,,,3.143127999966964,3.1627771999919787,3.1627771999919787,3.1627771999919787,3.1627771999919787,3.2292640999658033,j,0.05955360003281385,None,,,,,,,,,,,,,,,,,,,,,,,208194,001,2025-09-26_06h03.42.476,Priming_gender,,2025.1.1,60.01644449127052,2025-09-26 06h03.46.333914 +0700,
กฤษณะ,กาญจนา,men.png,กฤษณะ,men.png,กฤษณะ,10,50,100,21,21,12,k,0.049296900047920644,None,,,,12,21,21,0,,,,,3.263228900032118,,,,,,,,,3.242726600030437,3.263228900032118,3.263228900032118,3.263228900032118,3.263228900032118,3.3283607000485063,k,0.049296900047920644,None,,,,,,,,,,,,,,,,,,,,,,,208194,001,2025-09-26_06h03.42.476,Priming_gender,,2025.1.1,60.01644449127052,2025-09-26 06h03.46.333914 +0700,
นเรศ,พิมพ์ใจ,women.png,นเรศ,men.png,นเรศ,10,51,101,22,22,9,j,0.025199700030498207,None,,,,9,22,22,1,,,,,3.36216170003172,,,,,,,,,3.3416484999470413,3.36216170003172,3.36216170003172,3.36216170003172,3.36216170003172,3.395391399972141,j,0.025199700030498207,None,,,,,,,,,,,,,,,,,,,,,,,208194,001,2025-09-26_06h03.42.476,Priming_gender,,2025.1.1,60.01644449127052,2025-09-26 06h03.46.333914 +0700,
นเรศ,พิมพ์ใจ,women.png,นเรศ,men.png,นเรศ,10,51,101,23,23,10,k,0.06376980000641197,None,,,,10,23,23,1,,,,,3.428641099948436,,,,,,,,,3.4085495000472292,3.428641099948436,3.428641099948436,3.428641099948436,3.428641099948436,3.4957090000389144,k,0.06376980000641197,None,,,,,,,,,,,,,,,,,,,,,,,208194,001,2025-09-26_06h03.42.476,Priming_gender,,2025.1.1,60.01644449127052,2025-09-26 06h03.46.333914 +0700,
กฤษณะ,กาญจนา,men.png,กฤษณะ,men.png,กฤษณะ,10,50,100,24,24,13,j,0.06192210002336651,None,,,,13,24,24,0,,,,,3.5280951999593526,,,,,,,,,3.509559200028889,3.5280951999593526,3.5280951999593526,3.5280951999593526,3.5280951999593526,3.5958270999835804,j,0.06192210002336651,None,,,,,,,,,,,,,,,,,,,,,,,208194,001,2025-09-26_06h03.42.476,Priming_gender,,2025.1.1,60.01644449127052,2025-09-26 06h03.46.333914 +0700,
กฤษณะ,กาญจนา,men.png,กฤษณะ,men.png,กฤษณะ,10,50,100,25,25,14,k,0.06612780003342777,None,,,,14,25,25,0,,,,,3.6287478000158444,,,,,,,,,3.6092756999423727,3.6287478000158444,3.6287478000158444,3.6287478000158444,3.6287478000158444,3.7116118000121787,k,0.06612780003342777,None,,,,,,,,,,,,,,,,,,,,,,,208194,001,2025-09-26_06h03.42.476,Priming_gender,,2025.1.1,60.01644449127052,2025-09-26 06h03.46.333914 +0700,
กฤษณะ,กาญจนา,men.png,กฤษณะ,men.png,กฤษณะ,10,50,100,26,26,15,j,0.0329394000582397,None,,,,15,26,26,0,,,,,3.744778399937786,,,,,,,,,3.7247120999963954,3.744778399937786,3.744778399937786,3.744778399937786,3.744778399937786,3.795477799954824,j,0.0329394000582397,None,,,,,,,,,,,,,,,,,,,,,,,208194,001,2025-09-26_06h03.42.476,Priming_gender,,2025.1.1,60.01644449127052,2025-09-26 06h03.46.333914 +0700,
นเรศ,พิมพ์ใจ,women.png,นเรศ,men.png,นเรศ,10,51,101,27,27,11,k,0.04603660001885146,None,,,,11,27,27,1,,,,,3.8290369999594986,,,,,,,,,3.808765699970536,3.8290369999594986,3.8290369999594986,3.8290369999594986,3.8290369999594986,3.878292200039141,k,0.04603660001885146,None,,,,,,,,,,,,,,,,,,,,,,,208194,001,2025-09-26_06h03.42.476,Priming_gender,,2025.1.1,60.01644449127052,2025-09-26 06h03.46.333914 +0700,
นเรศ,พิมพ์ใจ,women.png,นเรศ,men.png,นเรศ,10,51,101,28,28,12,j,0.05343079997692257,None,,,,12,28,28,1,,,,,3.9115540999919176,,,,,,,,,3.8920186000177637,3.9115540999919176,3.9115540999919176,3.9115540999919176,3.9115540999919176,3.978369800024666,j,0.05343079997692257,None,,,,,,,,,,,,,,,,,,,,,,,208194,001,2025-09-26_06h03.42.476,Priming_gender,,2025.1.1,60.01644449127052,2025-09-26 06h03.46.333914 +0700,
กฤษณะ,กาญจนา,men.png,กฤษณะ,men.png,กฤษณะ,10,50,100,29,29,16,k,0.05112419999204576,None,,,,16,29,29,0,,,,,4.011570599977858,,,,,,,,,3.991505999932997,4.011570599977858,4.011570599977858,4.011570599977858,4.011570599977858,4.078387100016698,k,0.05112419999204576,None,,,,,,,,,,,,,,,,,,,,,,,208194,001,2025-09-26_06h03.42.476,Priming_gender,,2025.1.1,60.01644449127052,2025-09-26 06h03.46.333914 +0700,
นเรศ,พิมพ์ใจ,women.png,นเรศ,men.png,นเรศ,10,51,101,30,30,13,j,0.02601430006325245,None,,,,13,30,30,1,,,,,4.111518200021237,,,,,,,,,4.091504600015469,4.111518200021237,4.111518200021237,4.111518200021237,4.111518200021237,4.145089700003155,j,0.02601430006325245,None,,,,,,,,,,,,,,,,,,,,,,,208194,001,2025-09-26_06h03.42.476,Priming_gender,,2025.1.1,60.01644449127052,2025-09-26 06h03.46.333914 +0700,
นเรศ,พิมพ์ใจ,women.png,นเรศ,men.png,นเรศ,10,51,101,31,31,14,k,0.07173960004001856,None,,,,14,31,31,1,,,,,4.17807200003881,,,,,,,,,4.158120900043286,4.17807200003881,4.17807200003881,4.17807200003881,4.17807200003881,4.263083899975754,k,0.07173960004001856,None,,,,,,,,,,,,,,,,,,,,,,,208194,001,2025-09-26_06h03.42.476,Priming_gender,,2025.1.1,60.01644449127052,2025-09-26 06h03.46.333914 +0700,
นเรศ,พิมพ์ใจ,women.png,นเรศ,men.png,นเรศ,10,51,101,32,32,15,j,0.030072699999436736,None,,,,15,32,32,1,,,,,4.2948728000046685,,,,,,,,,4.276454900042154,4.2948728000046685,4.2948728000046685,4.2948728000046685,4.2948728000046685,4.329131399979815,j,0.030072699999436736,None,,,,,,,,,,,,,,,,,,,,,,,208194,001,2025-09-26_06h03.42.476,Priming_gender,,2025.1.1,60.01644449127052,2025-09-26 06h03.46.333914 +0700,
นเรศ,พิมพ์ใจ,women.png,นเรศ,men.png,นเรศ,10,51,101,33,33,16,k,0.05947640002705157,None,,,,16,33,33,1,,,,,4.362667400040664,,,,,,,,,4.3422508999938145,4.362667400040664,4.362667400040664,4.362667400040664,4.362667400040664,4.429169800016098,k,0.05947640002705157,None,,,,,,,,,,,,,,,,,,,,,,,208194,001,2025-09-26_06h03.42.476,Priming_gender,,2025.1.1,60.01644449127052,2025-09-26 06h03.46.333914 +0700,
นเรศ,พิมพ์ใจ,women.png,นเรศ,men.png,นเรศ,10,51,101,34,34,17,j,0.04354169999714941,None,,,,17,34,34,1,,,,,4.461576099973172,,,,,,,,,4.44228259997908,4.461576099973172,4.461576099973172,4.461576099973172,4.461576099973172,4.511616299976595,j,0.04354169999714941,None,,,,,,,,,,,,,,,,,,,,,,,208194,001,2025-09-26_06h03.42.476,Priming_gender,,2025.1.1,60.01644449127052,2025-09-26 06h03.46.333914 +0700,
นเรศ,พิมพ์ใจ,women.png,นเรศ,men.png,นเรศ,10,51,101,35,35,18,k,0.057839800021611154,None,,,,18,35,35,1,,,,,4.5446346999378875,,,,,,,,,4.524928399943747,4.5446346999378875,4.5446346999378875,4.5446346999378875,4.5446346999378875,4.6115417999681085,k,0.057839800021611154,None,,,,,,,,,,,,,,,,,,,,,,,208194,001,2025-09-26_06h03.42.476,Priming_gender,,2025.1.1,60.01644449127052,2025-09-26 06h03.46.333914 +0700,
กฤษณะ,กาญจนา,men.png,กฤษณะ,men.png,กฤษณะ,10,50,100,36,36,17,j,0.04798609996214509,None,,,,17,36,36,0,,,,,4.644645799999125,,,,,,,,,4.625449400045909,4.644645799999125,4.644645799999125,4.644645799999125,4.644645799999125,4.695556599996053,j,0.04798609996214509,None,,,,,,,,,,,,,,,,,,,,,,,208194,001,2025-09-26_06h03.42.476,Priming_gender,,2025.1.1,60.01644449127052,2025-09-26 06h03.46.333914 +0700,
กฤษณะ,กาญจนา,men.png,กฤษณะ,men.png,กฤษณะ,10,50,100,37,37,18,k,0.0835475999629125,None,,,,18,37,37,0,,,,,4.728931899997406,,,,,,,,,4.708925700047985,4.728931899997406,4.728931899997406,4.728931899997406,4.728931899997406,4.84498029993847,k,0.0835475999629125,None,,,,,,,,,,,,,,,,,,,,,,,208194,001,2025-09-26_06h03.42.476,Priming_gender,,2025.1.1,60.01644449127052,2025-09-26 06h03.46.333914 +0700,
กฤษณะ,กาญจนา,men.png,กฤษณะ,men.png,กฤษณะ,10,50,100,38,38,19,j,0.17409629991743714,None,,,,19,38,38,0,,,,,4.878143099951558,,,,,,,,,4.857957800035365,4.878143099951558,4.878143099951558,4.878143099951558,4.878143099951558,5.063289199955761,j,0.17409629991743714,None,,,,,,,,,,,,,,,,,,,,,,,208194,001,2025-09-26_06h03.42.476,Priming_gender,,2025.1.1,60.01644449127052,2025-09-26 06h03.46.333914 +0700,
นเรศ,พิมพ์ใจ,women.png,นเรศ,men.png,นเรศ,10,51,101,39,39,19,j,0.09154570009559393,None,,,,19,39,39,1,,,,,5.095573400030844,,,,,,,,,5.076038999948651,5.095573400030844,5.095573400030844,5.095573400030844,5.095573400030844,5.196238599950448,j,0.09154570009559393,None,,,,,,,,,,,,,,,,,,,,,,,208194,001,2025-09-26_06h03.42.476,Priming_gender,,2025.1.1,60.01644449127052,2025-09-26 06h03.46.333914 +0700,
,,,,,,,,,,,,,,,,,,,,,,,,,,,,,,,,,,,,,,,,,,,,5.196318199974485,5.211291300016455,5.211291300016455,6.244708999991417,space,1.0186790999723598,None,,,,,,,,,,,,,,,,208194,001,2025-09-26_06h03.42.476,Priming_gender,,2025.1.1,60.01644449127052,2025-09-26 06h03.46.333914 +0700,
ชัยวัฒน์,ศิริพร,None,ชัยวัฒน์,men.png,ชัยวัฒน์,10,54,104,0,0,0,,,,k,7.168144800001755,None,,,,,0,0,0,4,6.294498899951577,,,,,,,,,,,,,,,,,,,,,,,,,6.272706700023264,6.294498899951577,6.294498899951577,6.294498899951577,6.294498899951577,6.294498899951577,6.294498899951577,6.544434700044803,6.59449659998063,13.478101799963042,k,7.168144800001755,None,,,208194,001,2025-09-26_06h03.42.476,Priming_gender,,2025.1.1,60.01644449127052,2025-09-26 06h03.46.333914 +0700,
None,None,None,None,women.png,ศักดิ์สิทธิ์,11,58,128,1,1,0,,,,j,0.6309632000047714,None,,,,,0,1,1,28,13.511314500006847,,,,,,,,,,,,,,,,,,,,,,,,,13.499357599997893,13.511314500006847,13.511314500006847,13.511314500006847,13.511314500006847,13.511314500006847,13.511314500006847,13.777768700034358,13.811608199961483,14.144824799965136,j,0.6309632000047714,None,,,208194,001,2025-09-26_06h03.42.476,Priming_gender,,2025.1.1,60.01644449127052,2025-09-26 06h03.46.333914 +0700,
None,None,None,None,women.png,กาญจนา,11,60,130,2,2,0,,,,k,0.5253049000166357,None,,,,,0,2,2,30,14.179252399946563,,,,,,,,,,,,,,,,,,,,,,,,,14.162108600023203,14.179252399946563,14.179252399946563,14.179252399946563,14.179252399946563,14.179252399946563,14.179252399946563,14.444373399950564,14.51151129999198,14.711750300019048,k,0.5253049000166357,None,,,208194,001,2025-09-26_06h03.42.476,Priming_gender,,2025.1.1,60.01644449127052,2025-09-26 06h03.46.333914 +0700,
None,None,None,ศิริพร,men.png,ศิริพร,10,64,114,3,3,0,,,,k,0.8380303999874741,None,,,,,0,3,3,14,14.744401399977505,,,,,,,,,,,,,,,,,,,,,,,,,14.728853599983267,14.744401399977505,14.744401399977505,14.744401399977505,14.744401399977505,14.744401399977505,14.744401399977505,15.011466299998574,15.044572700047866,15.595743600046262,k,0.8380303999874741,None,,,208194,001,2025-09-26_06h03.42.476,Priming_gender,,2025.1.1,60.01644449127052,2025-09-26 06h03.46.333914 +0700,
None,None,None,None,women.png,วรรณา,11,67,137,4,4,0,,,,k,0.16273029998410493,None,,,,,0,4,4,37,15.711639099987224,,,,,,,,,,,,,,,,,,,,,,,,,15.690984999993816,15.711639099987224,15.711639099987224,15.711639099987224,15.711639099987224,15.711639099987224,15.711639099987224,,,15.877923100022599,k,0.16273029998410493,None,,,208194,001,2025-09-26_06h03.42.476,Priming_gender,,2025.1.1,60.01644449127052,2025-09-26 06h03.46.333914 +0700,
None,None,None,None,women.png,วาสนา,11,62,132,5,5,0,,,,k,0.443354899995029,None,,,,,0,5,5,32,15.911237000022084,,,,,,,,,,,,,,,,,,,,,,,,,15.892049600020982,15.911237000022084,15.911237000022084,15.911237000022084,15.911237000022084,15.911237000022084,15.911237000022084,16.17766359995585,16.211203500046395,16.361792400013655,k,0.443354899995029,None,,,208194,001,2025-09-26_06h03.42.476,Priming_gender,,2025.1.1,60.01644449127052,2025-09-26 06h03.46.333914 +0700,
None,None,None,None,women.png,พิสิฐ,11,59,129,6,6,0,,,,j,0.5006559999892488,None,,,,,0,6,6,29,16.394541300018318,,,,,,,,,,,,,,,,,,,,,,,,,16.37701559998095,16.394541300018318,16.394541300018318,16.394541300018318,16.394541300018318,16.394541300018318,16.394541300018318,16.661373700015247,16.6945340000093,16.91140370001085,j,0.5006559999892488,None,,,208194,001,2025-09-26_06h03.42.476,Priming_gender,,2025.1.1,60.01644449127052,2025-09-26 06h03.46.333914 +0700,
None,None,None,None,women.png,ชัยวัฒน์,11,54,124,7,7,0,,,,j,0.41529020003508776,None,,,,,0,7,7,24,16.944393799989484,,,,,,,,,,,,,,,,,,,,,,,,,16.924667999963276,16.944393799989484,16.944393799989484,16.944393799989484,16.944393799989484,16.944393799989484,16.944393799989484,17.211116699967533,17.244391900021583,17.36258109996561,j,0.41529020003508776,None,,,208194,001,2025-09-26_06h03.42.476,Priming_gender,,2025.1.1,60.01644449127052,2025-09-26 06h03.46.333914 +0700,
None,None,None,None,women.png,พิมพ์ใจ,11,61,131,8,8,0,,,,j,0.3629431000445038,None,,,,,0,8,8,31,17.394570600008592,,,,,,,,,,,,,,,,,,,,,,,,,17.378903400036506,17.394570600008592,17.394570600008592,17.394570600008592,17.394570600008592,17.394570600008592,17.394570600008592,17.6775983000407,17.69460069993511,17.76150120003149,j,0.3629431000445038,None,,,208194,001,2025-09-26_06h03.42.476,Priming_gender,,2025.1.1,60.01644449127052,2025-09-26 06h03.46.333914 +0700,
นเรศ,พิมพ์ใจ,women.png,นเรศ,men.png,นเรศ,10,51,101,9,9,0,,,,k,0.42005049996078014,None,,,,,0,9,9,1,17.794538800022565,,,,,,,,,,,,,,,,,,,,,,,,,17.777107800007798,17.794538800022565,17.794538800022565,17.794538800022565,17.794538800022565,17.794538800022565,17.794538800022565,18.061468299943954,18.095181199954823,18.228306200006045,k,0.42005049996078014,None,,,208194,001,2025-09-26_06h03.42.476,Priming_gender,,2025.1.1,60.01644449127052,2025-09-26 06h03.46.333914 +0700,
None,None,None,วาสนา,men.png,วาสนา,10,62,112,10,10,0,,,,k,0.34105180006008595,None,,,,,0,10,10,12,18.26355239993427,,,,,,,,,,,,,,,,,,,,,,,,,18.241618799977005,18.26355239993427,18.26355239993427,18.26355239993427,18.26355239993427,18.26355239993427,18.26355239993427,18.527891500038095,18.57759130001068,18.611280099954456,k,0.34105180006008595,None,,,208194,001,2025-09-26_06h03.42.476,Priming_gender,,2025.1.1,60.01644449127052,2025-09-26 06h03.46.333914 +0700,
ปริญญา,อาภรณ์,None,ปริญญา,men.png,ปริญญา,10,55,105,11,11,0,,,,k,0.2529823000077158,None,,,,,0,11,11,5,18.644273999962024,,,,,,,,,,,,,,,,,,,,,,,,,18.62731889996212,18.644273999962024,18.644273999962024,18.644273999962024,18.644273999962024,18.644273999962024,18.644273999962024,18.911036400008015,,18.911293199984357,k,0.2529823000077158,None,,,208194,001,2025-09-26_06h03.42.476,Priming_gender,,2025.1.1,60.01644449127052,2025-09-26 06h03.46.333914 +0700,
None,None,None,None,women.png,สุพัตรา,11,63,133,12,12,0,,,,k,0.2678146999096498,None,,,,,0,12,12,33,18.944378199987113,,,,,,,,,,,,,,,,,,,,,,,,,18.926934199989773,18.944378199987113,18.944378199987113,18.944378199987113,18.944378199987113,18.944378199987113,18.944378199987113,19.21101870003622,19.261417599976994,19.22879780002404,k,0.2678146999096498,None,,,208194,001,2025-09-26_06h03.42.476,Priming_gender,,2025.1.1,60.01644449127052,2025-09-26 06h03.46.333914 +0700,
None,None,None,วรรณา,men.png,วรรณา,10,67,117,13,13,0,,,,k,0.2131485000718385,None,,,,,0,13,13,17,19.261417599976994,,,,,,,,,,,,,,,,,,,,,,,,,19.24226730002556,19.261417599976994,19.261417599976994,19.261417599976994,19.261417599976994,19.261417599976994,19.261417599976994,,,19.47786179999821,k,0.2131485000718385,None,,,208194,001,2025-09-26_06h03.42.476,Priming_gender,,2025.1.1,60.01644449127052,2025-09-26 06h03.46.333914 +0700,
ธนพล,วาสนา,None,ธนพล,men.png,ธนพล,10,52,102,14,14,0,,,,k,0.18870530009735376,None,,,,,0,14,14,2,19.511018899967894,,,,,,,,,,,,,,,,,,,,,,,,,19.49297379993368,19.511018899967894,19.511018899967894,19.511018899967894,19.511018899967894,19.511018899967894,19.511018899967894,,,19.711280299932696,k,0.18870530009735376,None,,,208194,001,2025-09-26_06h03.42.476,Priming_gender,,2025.1.1,60.01644449127052,2025-09-26 06h03.46.333914 +0700,
None,None,None,สุนิสา,men.png,สุนิสา,10,68,118,15,15,0,,,,k,0.24046359991189092,None,,,,,0,15,15,18,19.74427070003003,,,,,,,,,,,,,,,,,,,,,,,,,19.724592500017025,19.74427070003003,19.74427070003003,19.74427070003003,19.74427070003003,19.74427070003003,19.74427070003003,20.028840300044976,,19.99525070004165,k,0.24046359991189092,None,,,208194,001,2025-09-26_06h03.42.476,Priming_gender,,2025.1.1,60.01644449127052,2025-09-26 06h03.46.333914 +0700,
None,None,None,None,women.png,ภูมิพัฒน์,11,56,126,16,16,0,,,,k,0.1132449998985976,None,,,,,0,16,16,26,20.028840300044976,,,,,,,,,,,,,,,,,,,,,,,,,20.01106669998262,20.028840300044976,20.028840300044976,20.028840300044976,20.028840300044976,20.028840300044976,20.028840300044976,,,20.144528400036506,k,0.1132449998985976,None,,,208194,001,2025-09-26_06h03.42.476,Priming_gender,,2025.1.1,60.01644449127052,2025-09-26 06h03.46.333914 +0700,
None,None,None,None,women.png,ศิริพร,11,64,134,17,17,0,,,,k,0.23483800003305078,None,,,,,0,17,17,34,20.177600499941036,,,,,,,,,,,,,,,,,,,,,,,,,20.15795599995181,20.177600499941036,20.177600499941036,20.177600499941036,20.177600499941036,20.177600499941036,20.177600499941036,20.461606199969538,,20.42808139999397,k,0.23483800003305078,None,,,208194,001,2025-09-26_06h03.42.476,Priming_gender,,2025.1.1,60.01644449127052,2025-09-26 06h03.46.333914 +0700,
None,None,None,อาภรณ์,men.png,อาภรณ์,10,65,115,18,18,0,,,,k,0.09321530000306666,None,,,,,0,18,18,15,20.461606199969538,,,,,,,,,,,,,,,,,,,,,,,,,20.44324199995026,20.461606199969538,20.461606199969538,20.461606199969538,20.461606199969538,20.461606199969538,20.461606199969538,,,20.562375399982557,k,0.09321530000306666,None,,,208194,001,2025-09-26_06h03.42.476,Priming_gender,,2025.1.1,60.01644449127052,2025-09-26 06h03.46.333914 +0700,
None,None,None,None,women.png,อรรถพล,11,53,123,19,19,0,,,,j,0.10985100001562387,None,,,,,0,19,19,23,20.594523699954152,,,,,,,,,,,,,,,,,,,,,,,,,20.577767299953848,20.594523699954152,20.594523699954152,20.594523699954152,20.594523699954152,20.594523699954152,20.594523699954152,,,20.711465499945916,j,0.10985100001562387,None,,,208194,001,2025-09-26_06h03.42.476,Priming_gender,,2025.1.1,60.01644449127052,2025-09-26 06h03.46.333914 +0700,
None,None,None,None,women.png,อาภรณ์,11,65,135,20,20,0,,,,k,0.09576809999998659,None,,,,,0,20,20,35,20.74423910002224,,,,,,,,,,,,,,,,,,,,,,,,,20.72489830001723,20.74423910002224,20.74423910002224,20.74423910002224,20.74423910002224,20.74423910002224,20.74423910002224,,,20.844563400023617,k,0.09576809999998659,None,,,208194,001,2025-09-26_06h03.42.476,Priming_gender,,2025.1.1,60.01644449127052,2025-09-26 06h03.46.333914 +0700,
None,None,None,None,women.png,ธนพล,11,52,122,21,21,0,,,,j,0.029811999993398786,None,,,,,0,21,21,22,20.877631700015627,,,,,,,,,,,,,,,,,,,,,,,,,20.8582291000057,20.877631700015627,20.877631700015627,20.877631700015627,20.877631700015627,20.877631700015627,20.877631700015627,,,20.911541300010867,j,0.029811999993398786,None,,,208194,001,2025-09-26_06h03.42.476,Priming_gender,,2025.1.1,60.01644449127052,2025-09-26 06h03.46.333914 +0700,
None,None,None,None,women.png,ปัทมา,11,69,139,22,22,0,,,,k,0.06772719998843968,None,,,,,0,22,22,39,20.944458600017242,,,,,,,,,,,,,,,,,,,,,,,,,20.92493660002947,20.944458600017242,20.944458600017242,20.944458600017242,20.944458600017242,20.944458600017242,20.944458600017242,,,21.02897370001301,k,0.06772719998843968,None,,,208194,001,2025-09-26_06h03.42.476,Priming_gender,,2025.1.1,60.01644449127052,2025-09-26 06h03.46.333914 +0700,
None,None,None,None,women.png,ปริญญา,11,55,125,23,23,0,,,,j,0.04006999998819083,None,,,,,0,23,23,25,21.0624308999395,,,,,,,,,,,,,,,,,,,,,,,,,21.042783200042322,21.0624308999395,21.0624308999395,21.0624308999395,21.0624308999395,21.0624308999395,21.0624308999395,,,21.11154199996963,j,0.04006999998819083,None,,,208194,001,2025-09-26_06h03.42.476,Priming_gender,,2025.1.1,60.01644449127052,2025-09-26 06h03.46.333914 +0700,
None,None,None,None,women.png,จิตติมา,11,66,136,24,24,0,,,,k,0.055301700020208955,None,,,,,0,24,24,36,21.144279000000097,,,,,,,,,,,,,,,,,,,,,,,,,21.125144099933095,21.144279000000097,21.144279000000097,21.144279000000097,21.144279000000097,21.144279000000097,21.144279000000097,,,21.211477900040336,k,0.055301700020208955,None,,,208194,001,2025-09-26_06h03.42.476,Priming_gender,,2025.1.1,60.01644449127052,2025-09-26 06h03.46.333914 +0700,
None,None,None,จิตติมา,men.png,จิตติมา,10,66,116,25,25,0,,,,j,0.0381323000183329,None,,,,,0,25,25,16,21.2442700000247,,,,,,,,,,,,,,,,,,,,,,,,,21.22509279998485,21.2442700000247,21.2442700000247,21.2442700000247,21.2442700000247,21.2442700000247,21.2442700000247,,,21.29553619993385,j,0.0381323000183329,None,,,208194,001,2025-09-26_06h03.42.476,Priming_gender,,2025.1.1,60.01644449127052,2025-09-26 06h03.46.333914 +0700,
อรรถพล,สุพัตรา,None,อรรถพล,men.png,อรรถพล,10,53,103,26,26,0,,,,k,0.04443690006155521,None,,,,,0,26,26,3,21.327803599997424,,,,,,,,,,,,,,,,,,,,,,,,,21.308952399995178,21.327803599997424,21.327803599997424,21.327803599997424,21.327803599997424,21.327803599997424,21.327803599997424,,,21.37781089998316,k,0.04443690006155521,None,,,208194,001,2025-09-26_06h03.42.476,Priming_gender,,2025.1.1,60.01644449127052,2025-09-26 06h03.46.333914 +0700,
None,None,None,สุพัตรา,men.png,สุพัตรา,10,63,113,27,27,0,,,,j,0.021227899938821793,None,,,,,0,27,27,13,21.411150499945506,,,,,,,,,,,,,,,,,,,,,,,,,21.391487500048243,21.411150499945506,21.411150499945506,21.411150499945506,21.411150499945506,21.411150499945506,21.411150499945506,,,21.444516799994744,j,0.021227899938821793,None,,,208194,001,2025-09-26_06h03.42.476,Priming_gender,,2025.1.1,60.01644449127052,2025-09-26 06h03.46.333914 +0700,
None,None,None,None,women.png,นเรศ,11,51,121,28,28,0,,,,k,0.07453010010067374,None,,,,,0,28,28,21,21.47756579995621,,,,,,,,,,,,,,,,,,,,,,,,,21.458373500034213,21.47756579995621,21.47756579995621,21.47756579995621,21.47756579995621,21.47756579995621,21.47756579995621,,,21.562099599977955,k,0.07453010010067374,None,,,208194,001,2025-09-26_06h03.42.476,Priming_gender,,2025.1.1,60.01644449127052,2025-09-26 06h03.46.333914 +0700,
ศักดิ์สิทธิ์,สุนิสา,None,ศักดิ์สิทธิ์,men.png,ศักดิ์สิทธิ์,10,58,108,29,29,0,,,,j,0.025470900000073016,None,,,,,0,29,29,8,21.59445490001235,,,,,,,,,,,,,,,,,,,,,,,,,21.57615929993335,21.59445490001235,21.59445490001235,21.59445490001235,21.59445490001235,21.59445490001235,21.59445490001235,,,21.628294299938716,j,0.025470900000073016,None,,,208194,001,2025-09-26_06h03.42.476,Priming_gender,,2025.1.1,60.01644449127052,2025-09-26 06h03.46.333914 +0700,
พิสิฐ,ปัทมา,None,พิสิฐ,men.png,พิสิฐ,10,59,109,30,30,0,,,,k,0.0782874000724405,None,,,,,0,30,30,9,21.661514400038868,,,,,,,,,,,,,,,,,,,,,,,,,21.6423427000409,21.661514400038868,21.661514400038868,21.661514400038868,21.661514400038868,21.661514400038868,21.661514400038868,,,21.74447739997413,k,0.0782874000724405,None,,,208194,001,2025-09-26_06h03.42.476,Priming_gender,,2025.1.1,60.01644449127052,2025-09-26 06h03.46.333914 +0700,
None,None,None,None,women.png,กฤษณะ,11,50,120,31,31,0,,,,j,0.014962199958972633,None,,,,,0,31,31,20,21.777502299984917,,,,,,,,,,,,,,,,,,,,,,,,,21.76213499996811,21.777502299984917,21.777502299984917,21.777502299984917,21.777502299984917,21.777502299984917,21.777502299984917,,,21.794823699980043,j,0.014962199958972633,None,,,208194,001,2025-09-26_06h03.42.476,Priming_gender,,2025.1.1,60.01644449127052,2025-09-26 06h03.46.333914 +0700,
วรพล,วรรณา,None,วรพล,men.png,วรพล,10,57,107,32,32,0,,,,k,0.08484649995807558,None,,,,,0,32,32,7,21.82757850002963,,,,,,,,,,,,,,,,,,,,,,,,,21.808974500047043,21.82757850002963,21.82757850002963,21.82757850002963,21.82757850002963,21.82757850002963,21.82757850002963,,,21.928950699977577,k,0.08484649995807558,None,,,208194,001,2025-09-26_06h03.42.476,Priming_gender,,2025.1.1,60.01644449127052,2025-09-26 06h03.46.333914 +0700,
None,None,None,None,women.png,สุนิสา,11,68,138,33,33,0,,,,j,0.018023400101810694,None,,,,,0,33,33,38,21.961807299987413,,,,,,,,,,,,,,,,,,,,,,,,,21.942364200018346,21.961807299987413,21.961807299987413,21.961807299987413,21.961807299987413,21.961807299987413,21.961807299987413,,,21.995791199966334,j,0.018023400101810694,None,,,208194,001,2025-09-26_06h03.42.476,Priming_gender,,2025.1.1,60.01644449127052,2025-09-26 06h03.46.333914 +0700,
None,None,None,พิมพ์ใจ,men.png,พิมพ์ใจ,10,61,111,34,34,0,,,,k,0.048222700017504394,None,,,,,0,34,34,11,22.029018700006418,,,,,,,,,,,,,,,,,,,,,,,,,22.009651300031692,22.029018700006418,22.029018700006418,22.029018700006418,22.029018700006418,22.029018700006418,22.029018700006418,,,22.09514130000025,k,0.048222700017504394,None,,,208194,001,2025-09-26_06h03.42.476,Priming_gender,,2025.1.1,60.01644449127052,2025-09-26 06h03.46.333914 +0700,
กฤษณะ,กาญจนา,men.png,กฤษณะ,men.png,กฤษณะ,10,50,100,35,35,0,,,,j,0.031541100004687905,None,,,,,0,35,35,0,22.128361899987794,,,,,,,,,,,,,,,,,,,,,,,,,22.10924200003501,22.128361899987794,22.128361899987794,22.128361899987794,22.128361899987794,22.128361899987794,22.128361899987794,,,22.162521800026298,j,0.031541100004687905,None,,,208194,001,2025-09-26_06h03.42.476,Priming_gender,,2025.1.1,60.01644449127052,2025-09-26 06h03.46.333914 +0700,
ภูมิพัฒน์,จิตติมา,None,ภูมิพัฒน์,men.png,ภูมิพัฒน์,10,56,106,36,36,0,,,,k,0.062413400039076805,None,,,,,0,36,36,6,22.195464799995534,,,,,,,,,,,,,,,,,,,,,,,,,22.176526400027797,22.195464799995534,22.195464799995534,22.195464799995534,22.195464799995534,22.195464799995534,22.195464799995534,,,22.26258149999194,k,0.062413400039076805,None,,,208194,001,2025-09-26_06h03.42.476,Priming_gender,,2025.1.1,60.01644449127052,2025-09-26 06h03.46.333914 +0700,
None,None,None,ปัทมา,men.png,ปัทมา,10,69,119,37,37,0,,,,j,0.02929900004528463,None,,,,,0,37,37,19,22.29549719998613,,,,,,,,,,,,,,,,,,,,,,,,,22.276339899981394,22.29549719998613,22.29549719998613,22.29549719998613,22.29549719998613,22.29549719998613,22.29549719998613,,,22.328877500025555,j,0.02929900004528463,None,,,208194,001,2025-09-26_06h03.42.476,Priming_gender,,2025.1.1,60.01644449127052,2025-09-26 06h03.46.333914 +0700,
None,None,None,กาญจนา,men.png,กาญจนา,10,60,110,38,38,0,,,,k,0.05368600005749613,None,,,,,0,38,38,10,22.361428300035186,,,,,,,,,,,,,,,,,,,,,,,,,22.342505499953404,22.361428300035186,22.361428300035186,22.361428300035186,22.361428300035186,22.361428300035186,22.361428300035186,,,22.427816199953668,k,0.05368600005749613,None,,,208194,001,2025-09-26_06h03.42.476,Priming_gender,,2025.1.1,60.01644449127052,2025-09-26 06h03.46.333914 +0700,
None,None,None,None,women.png,วรพล,11,57,127,39,39,0,,,,j,0.028364499914459884,None,,,,,0,39,39,27,22.46144230000209,,,,,,,,,,,,,,,,,,,,,,,,,22.441350599983707,22.46144230000209,22.46144230000209,22.46144230000209,22.46144230000209,22.46144230000209,22.46144230000209,,,22.49470569996629,j,0.028364499914459884,None,,,208194,001,2025-09-26_06h03.42.476,Priming_gender,,2025.1.1,60.01644449127052,2025-09-26 06h03.46.333914 +0700,
,,,,,,,,,,,,,,,,,,,,,,,,,,,,,,,,,,,,,,,,,,,,,,,,,,,,,,,,,,,,,,,,22.49492339999415,22.49496529996395,208194,001,2025-09-26_06h03.42.476,Priming_gender,,2025.1.1,60.01644449127052,2025-09-26 06h03.46.333914 +0700,
