Male,Female,Image,Name,ImagePriming,NamePriming,ImageTrig,NameTrig,Trig,thisN,thisTrialN,thisRepN,key_resp.keys,key_resp.rt,key_resp.duration,key_resp_3.keys,key_resp_3.rt,key_resp_3.duration,training.thisRepN,training.thisTrialN,training.thisN,training.thisIndex,priming.thisRepN,priming.thisTrialN,priming.thisN,priming.thisIndex,thisRow.t,notes,training_Instruction.started,instruction_slide.started,instruction_continue.started,training_Instruction.stopped,instruction_continue.keys,instruction_continue.rt,instruction_continue.duration,training_block.started,MAN.started,WOMAN.started,pic.started,key_resp.started,training_block.stopped,training.key_resp.keys,training.key_resp.rt,training.key_resp.duration,priming_instruction.started,instruction_slide_2.started,instruction_continue_2.started,priming_instruction.stopped,instruction_continue_2.keys,instruction_continue_2.rt,instruction_continue_2.duration,priming_block.started,MAN_3.started,MAN_3_desc.started,WOMAN_3.started,WOMAN_3_desc.started,name_2.started,key_resp_3.started,pic_2.started,name_2.stopped,priming_block.stopped,priming.key_resp_3.keys,priming.key_resp_3.rt,priming.key_resp_3.duration,participant,session,date,expName,expVersion,psychopyVersion,frameRate,expStart,
,,,,,,,,,,,,,,,,,,,,,,,,,,,,0.008541199960745871,0.019285399932414293,0.019285399932414293,2.6411228999495506,space,2.614263799972832,None,,,,,,,,,,,,,,,,,,,,,,,,,,,,,,239407,001,2025-09-26_10h24.26.445,Priming_gender,,2025.1.1,60.20331862590803,2025-09-26 10h24.32.979735 +0700,
นเรศ,พิมพ์ใจ,women.png,นเรศ,men.png,นเรศ,10,51,101,0,0,0,j,0.9689439999638125,None,,,,0,0,0,1,,,,,2.6925421999767423,,,,,,,,,2.6818348999368027,2.6925421999767423,2.6925421999767423,2.6925421999767423,2.6925421999767423,3.6679016000125557,j,0.9689439999638125,None,,,,,,,,,,,,,,,,,,,,,239407,001,2025-09-26_10h24.26.445,Priming_gender,,2025.1.1,60.20331862590803,2025-09-26 10h24.32.979735 +0700,
กฤษณะ,กาญจนา,men.png,กฤษณะ,men.png,กฤษณะ,10,50,100,1,1,0,k,0.16938340000342578,None,,,,0,1,1,0,,,,,3.705918599967845,,,,,,,,,3.6971382999327034,3.705918599967845,3.705918599967845,3.705918599967845,3.705918599967845,3.8851295999484137,k,0.16938340000342578,None,,,,,,,,,,,,,,,,,,,,,239407,001,2025-09-26_10h24.26.445,Priming_gender,,2025.1.1,60.20331862590803,2025-09-26 10h24.32.979735 +0700,
นเรศ,พิมพ์ใจ,women.png,นเรศ,men.png,นเรศ,10,51,101,2,2,1,k,0.20132880005985498,None,,,,1,2,2,1,,,,,3.9220870999852195,,,,,,,,,3.913647299981676,3.9220870999852195,3.9220870999852195,3.9220870999852195,3.9220870999852195,4.133850399986841,k,0.20132880005985498,None,,,,,,,,,,,,,,,,,,,,,239407,001,2025-09-26_10h24.26.445,Priming_gender,,2025.1.1,60.20331862590803,2025-09-26 10h24.32.979735 +0700,
กฤษณะ,กาญจนา,men.png,กฤษณะ,men.png,กฤษณะ,10,50,100,3,3,1,j,0.08146279992070049,None,,,,1,3,3,0,,,,,4.171869899961166,,,,,,,,,4.162542499951087,4.171869899961166,4.171869899961166,4.171869899961166,4.171869899961166,4.268560700002126,j,0.08146279992070049,None,,,,,,,,,,,,,,,,,,,,,239407,001,2025-09-26_10h24.26.445,Priming_gender,,2025.1.1,60.20331862590803,2025-09-26 10h24.32.979735 +0700,
กฤษณะ,กาญจนา,men.png,กฤษณะ,men.png,กฤษณะ,10,50,100,4,4,2,k,0.04300249996595085,None,,,,2,4,4,0,,,,,4.30625359993428,,,,,,,,,4.297423799987882,4.30625359993428,4.30625359993428,4.30625359993428,4.30625359993428,4.351593800005503,k,0.04300249996595085,None,,,,,,,,,,,,,,,,,,,,,239407,001,2025-09-26_10h24.26.445,Priming_gender,,2025.1.1,60.20331862590803,2025-09-26 10h24.32.979735 +0700,
นเรศ,พิมพ์ใจ,women.png,นเรศ,men.png,นเรศ,10,51,101,5,5,2,j,0.046542400028556585,None,,,,2,5,5,1,,,,,4.389399999985471,,,,,,,,,4.380688500008546,4.389399999985471,4.389399999985471,4.389399999985471,4.389399999985471,4.450111399986781,j,0.046542400028556585,None,,,,,,,,,,,,,,,,,,,,,239407,001,2025-09-26_10h24.26.445,Priming_gender,,2025.1.1,60.20331862590803,2025-09-26 10h24.32.979735 +0700,
กฤษณะ,กาญจนา,men.png,กฤษณะ,men.png,กฤษณะ,10,50,100,6,6,3,k,0.05494050006382167,None,,,,3,6,6,0,,,,,4.4877317999489605,,,,,,,,,4.478942799963988,4.4877317999489605,4.4877317999489605,4.4877317999489605,4.4877317999489605,4.550633699982427,k,0.05494050006382167,None,,,,,,,,,,,,,,,,,,,,,239407,001,2025-09-26_10h24.26.445,Priming_gender,,2025.1.1,60.20331862590803,2025-09-26 10h24.32.979735 +0700,
กฤษณะ,กาญจนา,men.png,กฤษณะ,men.png,กฤษณะ,10,50,100,7,7,4,j,0.051662800018675625,None,,,,4,7,7,0,,,,,4.5869516000384465,,,,,,,,,4.578237899928354,4.5869516000384465,4.5869516000384465,4.5869516000384465,4.5869516000384465,4.650111699942499,j,0.051662800018675625,None,,,,,,,,,,,,,,,,,,,,,239407,001,2025-09-26_10h24.26.445,Priming_gender,,2025.1.1,60.20331862590803,2025-09-26 10h24.32.979735 +0700,
นเรศ,พิมพ์ใจ,women.png,นเรศ,men.png,นเรศ,10,51,101,8,8,3,k,0.06140340003184974,None,,,,3,8,8,1,,,,,4.687216899939813,,,,,,,,,4.67839949997142,4.687216899939813,4.687216899939813,4.687216899939813,4.687216899939813,4.751353899948299,k,0.06140340003184974,None,,,,,,,,,,,,,,,,,,,,,239407,001,2025-09-26_10h24.26.445,Priming_gender,,2025.1.1,60.20331862590803,2025-09-26 10h24.32.979735 +0700,
นเรศ,พิมพ์ใจ,women.png,นเรศ,men.png,นเรศ,10,51,101,9,9,4,j,0.05370499996934086,None,,,,4,9,9,1,,,,,4.787495099939406,,,,,,,,,4.7792922999942675,4.787495099939406,4.787495099939406,4.787495099939406,4.787495099939406,4.8521819999441504,j,0.05370499996934086,None,,,,,,,,,,,,,,,,,,,,,239407,001,2025-09-26_10h24.26.445,Priming_gender,,2025.1.1,60.20331862590803,2025-09-26 10h24.32.979735 +0700,
กฤษณะ,กาญจนา,men.png,กฤษณะ,men.png,กฤษณะ,10,50,100,10,10,5,k,0.059854499995708466,None,,,,5,10,10,0,,,,,4.888994100037962,,,,,,,,,4.880283999955282,4.888994100037962,4.888994100037962,4.888994100037962,4.888994100037962,4.951664199936204,k,0.059854499995708466,None,,,,,,,,,,,,,,,,,,,,,239407,001,2025-09-26_10h24.26.445,Priming_gender,,2025.1.1,60.20331862590803,2025-09-26 10h24.32.979735 +0700,
นเรศ,พิมพ์ใจ,women.png,นเรศ,men.png,นเรศ,10,51,101,11,11,5,j,0.07924640004057437,None,,,,5,11,11,1,,,,,4.988319199997932,,,,,,,,,4.979990300023928,4.988319199997932,4.988319199997932,4.988319199997932,4.988319199997932,5.069049299927428,j,0.07924640004057437,None,,,,,,,,,,,,,,,,,,,,,239407,001,2025-09-26_10h24.26.445,Priming_gender,,2025.1.1,60.20331862590803,2025-09-26 10h24.32.979735 +0700,
นเรศ,พิมพ์ใจ,women.png,นเรศ,men.png,นเรศ,10,51,101,12,12,6,k,0.05817099998239428,None,,,,6,12,12,1,,,,,5.106089700013399,,,,,,,,,5.097348899929784,5.106089700013399,5.106089700013399,5.106089700013399,5.106089700013399,5.168288299930282,k,0.05817099998239428,None,,,,,,,,,,,,,,,,,,,,,239407,001,2025-09-26_10h24.26.445,Priming_gender,,2025.1.1,60.20331862590803,2025-09-26 10h24.32.979735 +0700,
กฤษณะ,กาญจนา,men.png,กฤษณะ,men.png,กฤษณะ,10,50,100,13,13,6,j,0.043648899998515844,None,,,,6,13,13,0,,,,,5.206122600007802,,,,,,,,,5.19741999998223,5.206122600007802,5.206122600007802,5.206122600007802,5.206122600007802,5.2678886000067,j,0.043648899998515844,None,,,,,,,,,,,,,,,,,,,,,239407,001,2025-09-26_10h24.26.445,Priming_gender,,2025.1.1,60.20331862590803,2025-09-26 10h24.32.979735 +0700,
กฤษณะ,กาญจนา,men.png,กฤษณะ,men.png,กฤษณะ,10,50,100,14,14,7,k,0.0659377999836579,None,,,,7,14,14,0,,,,,5.304510799935088,,,,,,,,,5.29616090003401,5.304510799935088,5.304510799935088,5.304510799935088,5.304510799935088,5.384314100025222,k,0.0659377999836579,None,,,,,,,,,,,,,,,,,,,,,239407,001,2025-09-26_10h24.26.445,Priming_gender,,2025.1.1,60.20331862590803,2025-09-26 10h24.32.979735 +0700,
กฤษณะ,กาญจนา,men.png,กฤษณะ,men.png,กฤษณะ,10,50,100,15,15,8,j,0.034812600002624094,None,,,,8,15,15,0,,,,,5.421759499935433,,,,,,,,,5.412554400041699,5.421759499935433,5.421759499935433,5.421759499935433,5.421759499935433,5.46757430001162,j,0.034812600002624094,None,,,,,,,,,,,,,,,,,,,,,239407,001,2025-09-26_10h24.26.445,Priming_gender,,2025.1.1,60.20331862590803,2025-09-26 10h24.32.979735 +0700,
นเรศ,พิมพ์ใจ,women.png,นเรศ,men.png,นเรศ,10,51,101,16,16,7,k,0.097019899985753,None,,,,7,16,16,1,,,,,5.504945599939674,,,,,,,,,5.49645320000127,5.504945599939674,5.504945599939674,5.504945599939674,5.504945599939674,5.617461399990134,k,0.097019899985753,None,,,,,,,,,,,,,,,,,,,,,239407,001,2025-09-26_10h24.26.445,Priming_gender,,2025.1.1,60.20331862590803,2025-09-26 10h24.32.979735 +0700,
กฤษณะ,กาญจนา,men.png,กฤษณะ,men.png,กฤษณะ,10,50,100,17,17,9,j,0.039257199969142675,None,,,,9,17,17,0,,,,,5.653484300011769,,,,,,,,,5.645518000004813,5.653484300011769,5.653484300011769,5.653484300011769,5.653484300011769,5.700108599965461,j,0.039257199969142675,None,,,,,,,,,,,,,,,,,,,,,239407,001,2025-09-26_10h24.26.445,Priming_gender,,2025.1.1,60.20331862590803,2025-09-26 10h24.32.979735 +0700,
กฤษณะ,กาญจนา,men.png,กฤษณะ,men.png,กฤษณะ,10,50,100,18,18,10,k,0.07721780007705092,None,,,,10,18,18,0,,,,,5.73738179996144,,,,,,,,,5.728128799935803,5.73738179996144,5.73738179996144,5.73738179996144,5.73738179996144,5.81758799997624,k,0.07721780007705092,None,,,,,,,,,,,,,,,,,,,,,239407,001,2025-09-26_10h24.26.445,Priming_gender,,2025.1.1,60.20331862590803,2025-09-26 10h24.32.979735 +0700,
นเรศ,พิมพ์ใจ,women.png,นเรศ,men.png,นเรศ,10,51,101,19,19,8,j,0.03313739993609488,None,,,,8,19,19,1,,,,,5.854261899949051,,,,,,,,,5.84586440003477,5.854261899949051,5.854261899949051,5.854261899949051,5.854261899949051,5.901289699948393,j,0.03313739993609488,None,,,,,,,,,,,,,,,,,,,,,239407,001,2025-09-26_10h24.26.445,Priming_gender,,2025.1.1,60.20331862590803,2025-09-26 10h24.32.979735 +0700,
นเรศ,พิมพ์ใจ,women.png,นเรศ,men.png,นเรศ,10,51,101,20,20,9,k,0.09671929990872741,None,,,,9,20,20,1,,,,,5.939064300036989,,,,,,,,,5.929871600004844,5.939064300036989,5.939064300036989,5.939064300036989,5.939064300036989,6.050823000026867,k,0.09671929990872741,None,,,,,,,,,,,,,,,,,,,,,239407,001,2025-09-26_10h24.26.445,Priming_gender,,2025.1.1,60.20331862590803,2025-09-26 10h24.32.979735 +0700,
นเรศ,พิมพ์ใจ,women.png,นเรศ,men.png,นเรศ,10,51,101,21,21,10,j,0.025303400005213916,None,,,,10,21,21,1,,,,,6.0891355000203475,,,,,,,,,6.080258999951184,6.0891355000203475,6.0891355000203475,6.0891355000203475,6.0891355000203475,6.1180888999952,j,0.025303400005213916,None,,,,,,,,,,,,,,,,,,,,,239407,001,2025-09-26_10h24.26.445,Priming_gender,,2025.1.1,60.20331862590803,2025-09-26 10h24.32.979735 +0700,
นเรศ,พิมพ์ใจ,women.png,นเรศ,men.png,นเรศ,10,51,101,22,22,11,k,0.07756249990779907,None,,,,11,22,22,1,,,,,6.155169700039551,,,,,,,,,6.146108799963258,6.155169700039551,6.155169700039551,6.155169700039551,6.155169700039551,6.234353399951942,k,0.07756249990779907,None,,,,,,,,,,,,,,,,,,,,,239407,001,2025-09-26_10h24.26.445,Priming_gender,,2025.1.1,60.20331862590803,2025-09-26 10h24.32.979735 +0700,
กฤษณะ,กาญจนา,men.png,กฤษณะ,men.png,กฤษณะ,10,50,100,23,23,11,j,0.06289439997635782,None,,,,11,23,23,0,,,,,6.27130409993697,,,,,,,,,6.262385600013658,6.27130409993697,6.27130409993697,6.27130409993697,6.27130409993697,6.350505999987945,j,0.06289439997635782,None,,,,,,,,,,,,,,,,,,,,,239407,001,2025-09-26_10h24.26.445,Priming_gender,,2025.1.1,60.20331862590803,2025-09-26 10h24.32.979735 +0700,
นเรศ,พิมพ์ใจ,women.png,นเรศ,men.png,นเรศ,10,51,101,24,24,12,k,0.07221100002061576,None,,,,12,24,24,1,,,,,6.390559999970719,,,,,,,,,6.381987600005232,6.390559999970719,6.390559999970719,6.390559999970719,6.390559999970719,6.467826299951412,k,0.07221100002061576,None,,,,,,,,,,,,,,,,,,,,,239407,001,2025-09-26_10h24.26.445,Priming_gender,,2025.1.1,60.20331862590803,2025-09-26 10h24.32.979735 +0700,
นเรศ,พิมพ์ใจ,women.png,นเรศ,men.png,นเรศ,10,51,101,25,25,13,j,0.03971089993137866,None,,,,13,25,25,1,,,,,6.504215899971314,,,,,,,,,6.496359699987806,6.504215899971314,6.504215899971314,6.504215899971314,6.504215899971314,6.551499799941666,j,0.03971089993137866,None,,,,,,,,,,,,,,,,,,,,,239407,001,2025-09-26_10h24.26.445,Priming_gender,,2025.1.1,60.20331862590803,2025-09-26 10h24.32.979735 +0700,
นเรศ,พิมพ์ใจ,women.png,นเรศ,men.png,นเรศ,10,51,101,26,26,14,k,0.06303369998931885,None,,,,14,26,26,1,,,,,6.58835520001594,,,,,,,,,6.579254999989644,6.58835520001594,6.58835520001594,6.58835520001594,6.58835520001594,6.667590599972755,k,0.06303369998931885,None,,,,,,,,,,,,,,,,,,,,,239407,001,2025-09-26_10h24.26.445,Priming_gender,,2025.1.1,60.20331862590803,2025-09-26 10h24.32.979735 +0700,
นเรศ,พิมพ์ใจ,women.png,นเรศ,men.png,นเรศ,10,51,101,27,27,15,j,0.021411199937574565,None,,,,15,27,27,1,,,,,6.703721400001086,,,,,,,,,6.695824799942784,6.703721400001086,6.703721400001086,6.703721400001086,6.703721400001086,6.734865700011142,j,0.021411199937574565,None,,,,,,,,,,,,,,,,,,,,,239407,001,2025-09-26_10h24.26.445,Priming_gender,,2025.1.1,60.20331862590803,2025-09-26 10h24.32.979735 +0700,
นเรศ,พิมพ์ใจ,women.png,นเรศ,men.png,นเรศ,10,51,101,28,28,16,k,0.06265640002675354,None,,,,16,28,28,1,,,,,6.772515199962072,,,,,,,,,6.763458700035699,6.772515199962072,6.772515199962072,6.772515199962072,6.772515199962072,6.851505900034681,k,0.06265640002675354,None,,,,,,,,,,,,,,,,,,,,,239407,001,2025-09-26_10h24.26.445,Priming_gender,,2025.1.1,60.20331862590803,2025-09-26 10h24.32.979735 +0700,
กฤษณะ,กาญจนา,men.png,กฤษณะ,men.png,กฤษณะ,10,50,100,29,29,12,k,0.30000699998345226,None,,,,12,29,29,0,,,,,6.888883100007661,,,,,,,,,6.879923400003463,6.888883100007661,6.888883100007661,6.888883100007661,6.888883100007661,7.2013410000363365,k,0.30000699998345226,None,,,,,,,,,,,,,,,,,,,,,239407,001,2025-09-26_10h24.26.445,Priming_gender,,2025.1.1,60.20331862590803,2025-09-26 10h24.32.979735 +0700,
นเรศ,พิมพ์ใจ,women.png,นเรศ,men.png,นเรศ,10,51,101,30,30,17,k,0.12684279994573444,None,,,,17,30,30,1,,,,,7.239808499929495,,,,,,,,,7.22970919997897,7.239808499929495,7.239808499929495,7.239808499929495,7.239808499929495,7.367781599983573,k,0.12684279994573444,None,,,,,,,,,,,,,,,,,,,,,239407,001,2025-09-26_10h24.26.445,Priming_gender,,2025.1.1,60.20331862590803,2025-09-26 10h24.32.979735 +0700,
กฤษณะ,กาญจนา,men.png,กฤษณะ,men.png,กฤษณะ,10,50,100,31,31,13,k,0.12471879995428026,None,,,,13,31,31,0,,,,,7.404367099981755,,,,,,,,,7.395981500041671,7.404367099981755,7.404367099981755,7.404367099981755,7.404367099981755,7.5348996999673545,k,0.12471879995428026,None,,,,,,,,,,,,,,,,,,,,,239407,001,2025-09-26_10h24.26.445,Priming_gender,,2025.1.1,60.20331862590803,2025-09-26 10h24.32.979735 +0700,
กฤษณะ,กาญจนา,men.png,กฤษณะ,men.png,กฤษณะ,10,50,100,32,32,14,k,0.11900980002246797,None,,,,14,32,32,0,,,,,7.574468899983913,,,,,,,,,7.56602639995981,7.574468899983913,7.574468899983913,7.574468899983913,7.574468899983913,7.701634099939838,k,0.11900980002246797,None,,,,,,,,,,,,,,,,,,,,,239407,001,2025-09-26_10h24.26.445,Priming_gender,,2025.1.1,60.20331862590803,2025-09-26 10h24.32.979735 +0700,
นเรศ,พิมพ์ใจ,women.png,นเรศ,men.png,นเรศ,10,51,101,33,33,18,k,0.22406349994707853,None,,,,18,33,33,1,,,,,7.7378974999301136,,,,,,,,,7.729609400033951,7.7378974999301136,7.7378974999301136,7.7378974999301136,7.7378974999301136,7.967063499963842,k,0.22406349994707853,None,,,,,,,,,,,,,,,,,,,,,239407,001,2025-09-26_10h24.26.445,Priming_gender,,2025.1.1,60.20331862590803,2025-09-26 10h24.32.979735 +0700,
นเรศ,พิมพ์ใจ,women.png,นเรศ,men.png,นเรศ,10,51,101,34,34,19,j,0.1660440000705421,None,,,,19,34,34,1,,,,,8.002822799957357,,,,,,,,,7.994267800007947,8.002822799957357,8.002822799957357,8.002822799957357,8.002822799957357,8.183428299962543,j,0.1660440000705421,None,,,,,,,,,,,,,,,,,,,,,239407,001,2025-09-26_10h24.26.445,Priming_gender,,2025.1.1,60.20331862590803,2025-09-26 10h24.32.979735 +0700,
กฤษณะ,กาญจนา,men.png,กฤษณะ,men.png,กฤษณะ,10,50,100,35,35,15,j,0.3701555000152439,None,,,,15,35,35,0,,,,,8.220744699938223,,,,,,,,,8.211552800028585,8.220744699938223,8.220744699938223,8.220744699938223,8.220744699938223,8.600502099958248,j,0.3701555000152439,None,,,,,,,,,,,,,,,,,,,,,239407,001,2025-09-26_10h24.26.445,Priming_gender,,2025.1.1,60.20331862590803,2025-09-26 10h24.32.979735 +0700,
กฤษณะ,กาญจนา,men.png,กฤษณะ,men.png,กฤษณะ,10,50,100,36,36,16,j,0.12713349994737655,None,,,,16,36,36,0,,,,,8.637177299940959,,,,,,,,,8.62829010002315,8.637177299940959,8.637177299940959,8.637177299940959,8.637177299940959,8.768038699985482,j,0.12713349994737655,None,,,,,,,,,,,,,,,,,,,,,239407,001,2025-09-26_10h24.26.445,Priming_gender,,2025.1.1,60.20331862590803,2025-09-26 10h24.32.979735 +0700,
กฤษณะ,กาญจนา,men.png,กฤษณะ,men.png,กฤษณะ,10,50,100,37,37,17,k,0.3415151999797672,None,,,,17,37,37,0,,,,,8.808481100015342,,,,,,,,,8.799834199948236,8.808481100015342,8.808481100015342,8.808481100015342,8.808481100015342,9.151326299994253,k,0.3415151999797672,None,,,,,,,,,,,,,,,,,,,,,239407,001,2025-09-26_10h24.26.445,Priming_gender,,2025.1.1,60.20331862590803,2025-09-26 10h24.32.979735 +0700,
กฤษณะ,กาญจนา,men.png,กฤษณะ,men.png,กฤษณะ,10,50,100,38,38,18,j,0.22624400001950562,None,,,,18,38,38,0,,,,,9.187814299948514,,,,,,,,,9.179082299931906,9.187814299948514,9.187814299948514,9.187814299948514,9.187814299948514,9.41823489998933,j,0.22624400001950562,None,,,,,,,,,,,,,,,,,,,,,239407,001,2025-09-26_10h24.26.445,Priming_gender,,2025.1.1,60.20331862590803,2025-09-26 10h24.32.979735 +0700,
กฤษณะ,กาญจนา,men.png,กฤษณะ,men.png,กฤษณะ,10,50,100,39,39,19,k,0.1523286000592634,None,,,,19,39,39,0,,,,,9.457531200023368,,,,,,,,,9.447135700029321,9.457531200023368,9.457531200023368,9.457531200023368,9.457531200023368,9.617390700033866,k,0.1523286000592634,None,,,,,,,,,,,,,,,,,,,,,239407,001,2025-09-26_10h24.26.445,Priming_gender,,2025.1.1,60.20331862590803,2025-09-26 10h24.32.979735 +0700,
,,,,,,,,,,,,,,,,,,,,,,,,,,,,,,,,,,,,,,,,,,,,9.61756509996485,9.63576810003724,9.63576810003724,10.352411399944685,space,0.7042733000125736,None,,,,,,,,,,,,,,239407,001,2025-09-26_10h24.26.445,Priming_gender,,2025.1.1,60.20331862590803,2025-09-26 10h24.32.979735 +0700,
None,None,None,None,women.png,ศิริพร,11,64,134,0,0,0,,,,j,1.0262051000026986,None,,,,,0,0,0,34,10.572604799992405,,,,,,,,,,,,,,,,,,,,,,,,,10.555456900037825,10.572604799992405,10.572604799992405,10.572604799992405,10.572604799992405,10.572604799992405,10.572604799992405,10.66873040003702,10.883473900030367,11.600415199995041,j,1.0262051000026986,None,239407,001,2025-09-26_10h24.26.445,Priming_gender,,2025.1.1,60.20331862590803,2025-09-26 10h24.32.979735 +0700,
None,None,None,ปัทมา,men.png,ปัทมา,10,69,119,1,1,0,,,,j,0.6761616000439972,None,,,,,0,1,1,19,11.863799699931405,,,,,,,,,,,,,,,,,,,,,,,,,11.851860899943858,11.863799699931405,11.863799699931405,11.863799699931405,11.863799699931405,11.863799699931405,11.863799699931405,11.899916699971072,12.1678249000106,12.552037199959159,j,0.6761616000439972,None,239407,001,2025-09-26_10h24.26.445,Priming_gender,,2025.1.1,60.20331862590803,2025-09-26 10h24.32.979735 +0700,
พิสิฐ,ปัทมา,None,พิสิฐ,men.png,พิสิฐ,10,59,109,2,2,0,,,,k,0.7157544000074267,None,,,,,0,2,2,9,12.73939739994239,,,,,,,,,,,,,,,,,,,,,,,,,12.727666500024498,12.73939739994239,12.73939739994239,12.73939739994239,12.73939739994239,12.73939739994239,12.73939739994239,12.866236299974844,13.049670899985358,13.469123399932869,k,0.7157544000074267,None,239407,001,2025-09-26_10h24.26.445,Priming_gender,,2025.1.1,60.20331862590803,2025-09-26 10h24.32.979735 +0700,
None,None,None,None,women.png,สุพัตรา,11,63,133,3,3,0,,,,k,0.7399802999570966,None,,,,,0,3,3,33,13.57056439993903,,,,,,,,,,,,,,,,,,,,,,,,,13.559180999989621,13.57056439993903,13.57056439993903,13.57056439993903,13.57056439993903,13.57056439993903,13.57056439993903,13.782906700042076,13.88346789998468,14.318173600011505,k,0.7399802999570966,None,239407,001,2025-09-26_10h24.26.445,Priming_gender,,2025.1.1,60.20331862590803,2025-09-26 10h24.32.979735 +0700,
None,None,None,จิตติมา,men.png,จิตติมา,10,66,116,4,4,0,,,,j,0.7202841000398621,None,,,,,0,4,4,16,14.396152199944481,,,,,,,,,,,,,,,,,,,,,,,,,14.385258199996315,14.396152199944481,14.396152199944481,14.396152199944481,14.396152199944481,14.396152199944481,14.396152199944481,14.63393290003296,14.700620100018568,15.117566199973226,j,0.7202841000398621,None,239407,001,2025-09-26_10h24.26.445,Priming_gender,,2025.1.1,60.20331862590803,2025-09-26 10h24.32.979735 +0700,
None,None,None,None,women.png,กาญจนา,11,60,130,5,5,0,,,,k,0.7014307999052107,None,,,,,0,5,5,30,15.339800699963234,,,,,,,,,,,,,,,,,,,,,,,,,15.32827419997193,15.339800699963234,15.339800699963234,15.339800699963234,15.339800699963234,15.339800699963234,15.339800699963234,15.415979200042784,15.648464399972,16.050142799969763,k,0.7014307999052107,None,239407,001,2025-09-26_10h24.26.445,Priming_gender,,2025.1.1,60.20331862590803,2025-09-26 10h24.32.979735 +0700,
ชัยวัฒน์,ศิริพร,None,ชัยวัฒน์,men.png,ชัยวัฒน์,10,54,104,6,6,0,,,,k,0.6596514999400824,None,,,,,0,6,6,4,16.305885799927637,,,,,,,,,,,,,,,,,,,,,,,,,16.292677499935962,16.305885799927637,16.305885799927637,16.305885799927637,16.305885799927637,16.305885799927637,16.305885799927637,16.366469400003552,16.616086599999107,16.966681699967012,k,0.6596514999400824,None,239407,001,2025-09-26_10h24.26.445,Priming_gender,,2025.1.1,60.20331862590803,2025-09-26 10h24.32.979735 +0700,
None,None,None,None,women.png,ปัทมา,11,69,139,7,7,0,,,,k,0.7328468000050634,None,,,,,0,7,7,39,17.004951099981554,,,,,,,,,,,,,,,,,,,,,,,,,16.993994900025427,17.004951099981554,17.004951099981554,17.004951099981554,17.004951099981554,17.004951099981554,17.004951099981554,17.268045000033453,17.316306499997154,17.749394799931906,k,0.7328468000050634,None,239407,001,2025-09-26_10h24.26.445,Priming_gender,,2025.1.1,60.20331862590803,2025-09-26 10h24.32.979735 +0700,
None,None,None,None,women.png,ชัยวัฒน์,11,54,124,8,8,0,,,,k,0.6139096999540925,None,,,,,0,8,8,24,17.78845829993952,,,,,,,,,,,,,,,,,,,,,,,,,17.77714899997227,17.78845829993952,17.78845829993952,17.78845829993952,17.78845829993952,17.78845829993952,17.78845829993952,18.050641200039536,18.099395200028084,18.417175799957477,k,0.6139096999540925,None,239407,001,2025-09-26_10h24.26.445,Priming_gender,,2025.1.1,60.20331862590803,2025-09-26 10h24.32.979735 +0700,
None,None,None,None,women.png,อรรถพล,11,53,123,9,9,0,,,,j,0.4781894999323413,None,,,,,0,9,9,23,18.58481060003396,,,,,,,,,,,,,,,,,,,,,,,,,18.572870500036515,18.58481060003396,18.58481060003396,18.58481060003396,18.58481060003396,18.58481060003396,18.58481060003396,18.733154600020498,18.90093020000495,19.06839170004241,j,0.4781894999323413,None,239407,001,2025-09-26_10h24.26.445,Priming_gender,,2025.1.1,60.20331862590803,2025-09-26 10h24.32.979735 +0700,
ธนพล,วาสนา,None,ธนพล,men.png,ธนพล,10,52,102,10,10,0,,,,k,0.4258764999685809,None,,,,,0,10,10,2,19.15006709995214,,,,,,,,,,,,,,,,,,,,,,,,,19.13846319995355,19.15006709995214,19.15006709995214,19.15006709995214,19.15006709995214,19.15006709995214,19.15006709995214,19.384478399995714,19.44855600001756,19.58344269997906,k,0.4258764999685809,None,239407,001,2025-09-26_10h24.26.445,Priming_gender,,2025.1.1,60.20331862590803,2025-09-26 10h24.32.979735 +0700,
None,None,None,None,women.png,วาสนา,11,62,132,11,11,0,,,,k,0.4458275999641046,None,,,,,0,11,11,32,19.621016299934126,,,,,,,,,,,,,,,,,,,,,,,,,19.61073319998104,19.621016299934126,19.621016299934126,19.621016299934126,19.621016299934126,19.621016299934126,19.621016299934126,19.884264399996027,19.932851999998093,20.082451700000092,k,0.4458275999641046,None,239407,001,2025-09-26_10h24.26.445,Priming_gender,,2025.1.1,60.20331862590803,2025-09-26 10h24.32.979735 +0700,
None,None,None,None,women.png,อาภรณ์,11,65,135,12,12,0,,,,k,0.3153277999954298,None,,,,,0,12,12,35,20.22930050001014,,,,,,,,,,,,,,,,,,,,,,,,,20.218269299948588,20.22930050001014,20.22930050001014,20.22930050001014,20.22930050001014,20.22930050001014,20.22930050001014,20.383097899961285,20.534489799989387,20.549383700010367,k,0.3153277999954298,None,239407,001,2025-09-26_10h24.26.445,Priming_gender,,2025.1.1,60.20331862590803,2025-09-26 10h24.32.979735 +0700,
None,None,None,None,women.png,จิตติมา,11,66,136,13,13,0,,,,k,0.4011347000487149,None,,,,,0,13,13,36,20.587380799930543,,,,,,,,,,,,,,,,,,,,,,,,,20.576599800027907,20.587380799930543,20.587380799930543,20.587380799930543,20.587380799930543,20.587380799930543,20.587380799930543,20.850397199974395,20.90065870003309,21.000073899980634,k,0.4011347000487149,None,239407,001,2025-09-26_10h24.26.445,Priming_gender,,2025.1.1,60.20331862590803,2025-09-26 10h24.32.979735 +0700,
None,None,None,None,women.png,วรรณา,11,67,137,14,14,0,,,,k,0.6892644000472501,None,,,,,0,14,14,37,21.040517900022678,,,,,,,,,,,,,,,,,,,,,,,,,21.028535799938254,21.040517900022678,21.040517900022678,21.040517900022678,21.040517900022678,21.040517900022678,21.040517900022678,21.29942920000758,21.34932439995464,21.732482700026594,k,0.6892644000472501,None,239407,001,2025-09-26_10h24.26.445,Priming_gender,,2025.1.1,60.20331862590803,2025-09-26 10h24.32.979735 +0700,
None,None,None,None,women.png,สุนิสา,11,68,138,15,15,0,,,,k,0.4341955999843776,None,,,,,0,15,15,38,21.772139100008644,,,,,,,,,,,,,,,,,,,,,,,,,21.760653499979526,21.772139100008644,21.772139100008644,21.772139100008644,21.772139100008644,21.772139100008644,21.772139100008644,22.033413199940696,22.082096199970692,22.217938699992374,k,0.4341955999843776,None,239407,001,2025-09-26_10h24.26.445,Priming_gender,,2025.1.1,60.20331862590803,2025-09-26 10h24.32.979735 +0700,
None,None,None,สุพัตรา,men.png,สุพัตรา,10,63,113,16,16,0,,,,k,0.4174496999476105,None,,,,,0,16,16,13,22.257032900000922,,,,,,,,,,,,,,,,,,,,,,,,,22.245446300017647,22.257032900000922,22.257032900000922,22.257032900000922,22.257032900000922,22.257032900000922,22.257032900000922,22.533971299999394,22.567118100007065,22.682743199984543,k,0.4174496999476105,None,239407,001,2025-09-26_10h24.26.445,Priming_gender,,2025.1.1,60.20331862590803,2025-09-26 10h24.32.979735 +0700,
None,None,None,วรรณา,men.png,วรรณา,10,67,117,17,17,0,,,,k,0.28175399999599904,None,,,,,0,17,17,17,22.7222784999758,,,,,,,,,,,,,,,,,,,,,,,,,22.71093890001066,22.7222784999758,22.7222784999758,22.7222784999758,22.7222784999758,22.7222784999758,22.7222784999758,23.000741499941796,23.057605399983004,23.017784300027415,k,0.28175399999599904,None,239407,001,2025-09-26_10h24.26.445,Priming_gender,,2025.1.1,60.20331862590803,2025-09-26 10h24.32.979735 +0700,
None,None,None,None,women.png,ปริญญา,11,55,125,18,18,0,,,,,,,,,,,0,18,18,25,23.057605399983004,,,,,,,,,,,,,,,,,,,,,,,,,23.04796420002822,23.057605399983004,23.057605399983004,23.057605399983004,23.057605399983004,23.057605399983004,23.057605399983004,23.333284299937077,23.36637319996953,,,,,,,,,,,,,
