Male,Female,Image,Name,ImagePriming,NamePriming,thisN,thisTrialN,thisRepN,key_resp.keys,key_resp.rt,key_resp.duration,key_resp_3.keys,key_resp_3.rt,key_resp_3.duration,training.thisRepN,training.thisTrialN,training.thisN,training.thisIndex,priming.thisRepN,priming.thisTrialN,priming.thisN,priming.thisIndex,thisRow.t,notes,training_block.started,MAN.started,WOMAN.started,pic.started,key_resp.started,training_block.stopped,training.key_resp.keys,training.key_resp.rt,training.key_resp.duration,priming_block.started,MAN_3.started,WOMAN_3.started,name_2.started,key_resp_3.started,pic_2.started,name_2.stopped,priming_block.stopped,priming.key_resp_3.keys,priming.key_resp_3.rt,priming.key_resp_3.duration,participant,session,date,expName,expVersion,psychopyVersion,frameRate,expStart,
กฤษณะ,กาญจนา,men.png,กฤษณะ,men.png,กฤษณะ,0,0,0,k,1.4842246000189334,None,,,,0,0,0,0,,,,,0.03564270003698766,,0.02896959998179227,0.03564270003698766,0.03564270003698766,0.03564270003698766,0.03564270003698766,1.596174499951303,k,1.4842246000189334,None,,,,,,,,,,,,295552,001,2025-09-25_16h02.31.942,Priming_gender,,2025.1.1,59.45536506579847,2025-09-25 16h02.39.708374 +0700,
นเรศ,พิมพ์ใจ,women.png,นเรศ,men.png,นเรศ,1,1,0,j,0.44852289999835193,None,,,,0,1,1,1,,,,,1.6195518999593332,,1.6124446999747306,1.6195518999593332,1.6195518999593332,1.6195518999593332,1.6195518999593332,2.0765114999376237,j,0.44852289999835193,None,,,,,,,,,,,,295552,001,2025-09-25_16h02.31.942,Priming_gender,,2025.1.1,59.45536506579847,2025-09-25 16h02.39.708374 +0700,
นเรศ,พิมพ์ใจ,women.png,นเรศ,men.png,นเรศ,2,2,1,j,0.9232183999847621,None,,,,1,2,2,1,,,,,2.1009101000381634,,2.0942094000056386,2.1009101000381634,2.1009101000381634,2.1009101000381634,2.1009101000381634,3.025592499994673,j,0.9232183999847621,None,,,,,,,,,,,,295552,001,2025-09-25_16h02.31.942,Priming_gender,,2025.1.1,59.45536506579847,2025-09-25 16h02.39.708374 +0700,
กฤษณะ,กาญจนา,men.png,กฤษณะ,men.png,กฤษณะ,3,3,1,k,0.4364372999407351,None,,,,1,3,3,0,,,,,3.049112300039269,,3.0433357999427244,3.049112300039269,3.049112300039269,3.049112300039269,3.049112300039269,3.4926502000307664,k,0.4364372999407351,None,,,,,,,,,,,,295552,001,2025-09-25_16h02.31.942,Priming_gender,,2025.1.1,59.45536506579847,2025-09-25 16h02.39.708374 +0700,
กฤษณะ,กาญจนา,men.png,กฤษณะ,men.png,กฤษณะ,4,4,2,k,0.2663099999772385,None,,,,2,4,4,0,,,,,3.5169988999841735,,3.5109206000342965,3.5169988999841735,3.5169988999841735,3.5169988999841735,3.5169988999841735,3.792678599944338,k,0.2663099999772385,None,,,,,,,,,,,,295552,001,2025-09-25_16h02.31.942,Priming_gender,,2025.1.1,59.45536506579847,2025-09-25 16h02.39.708374 +0700,
นเรศ,พิมพ์ใจ,women.png,นเรศ,men.png,นเรศ,5,5,2,j,0.2736508999951184,None,,,,2,5,5,1,,,,,3.8163089000154287,,3.811098200036213,3.8163089000154287,3.8163089000154287,3.8163089000154287,3.8163089000154287,4.092483500018716,j,0.2736508999951184,None,,,,,,,,,,,,295552,001,2025-09-25_16h02.31.942,Priming_gender,,2025.1.1,59.45536506579847,2025-09-25 16h02.39.708374 +0700,
นเรศ,พิมพ์ใจ,women.png,นเรศ,men.png,นเรศ,6,6,3,j,0.24716050003189594,None,,,,3,6,6,1,,,,,4.116566899931058,,4.111085399985313,4.116566899931058,4.116566899931058,4.116566899931058,4.116566899931058,4.375918600009754,j,0.24716050003189594,None,,,,,,,,,,,,295552,001,2025-09-25_16h02.31.942,Priming_gender,,2025.1.1,59.45536506579847,2025-09-25 16h02.39.708374 +0700,
นเรศ,พิมพ์ใจ,women.png,นเรศ,men.png,นเรศ,7,7,4,j,0.29274330008774996,None,,,,4,7,7,1,,,,,4.39991789998021,,4.3940868999343365,4.39991789998021,4.39991789998021,4.39991789998021,4.39991789998021,4.709426800021902,j,0.29274330008774996,None,,,,,,,,,,,,295552,001,2025-09-25_16h02.31.942,Priming_gender,,2025.1.1,59.45536506579847,2025-09-25 16h02.39.708374 +0700,
นเรศ,พิมพ์ใจ,women.png,นเรศ,men.png,นเรศ,8,8,5,j,0.24363240005914122,None,,,,5,8,8,1,,,,,4.732734699966386,,4.727605600026436,4.732734699966386,4.732734699966386,4.732734699966386,4.732734699966386,4.992902799975127,j,0.24363240005914122,None,,,,,,,,,,,,295552,001,2025-09-25_16h02.31.942,Priming_gender,,2025.1.1,59.45536506579847,2025-09-25 16h02.39.708374 +0700,
นเรศ,พิมพ์ใจ,women.png,นเรศ,men.png,นเรศ,9,9,6,j,0.26817759999539703,None,,,,6,9,9,1,,,,,5.01605480001308,,5.010896599967964,5.01605480001308,5.01605480001308,5.01605480001308,5.01605480001308,5.292223899974488,j,0.26817759999539703,None,,,,,,,,,,,,295552,001,2025-09-25_16h02.31.942,Priming_gender,,2025.1.1,59.45536506579847,2025-09-25 16h02.39.708374 +0700,
นเรศ,พิมพ์ใจ,women.png,นเรศ,men.png,นเรศ,10,10,7,j,0.28860319999512285,None,,,,7,10,10,1,,,,,5.314866599976085,,5.309446500032209,5.314866599976085,5.314866599976085,5.314866599976085,5.314866599976085,5.609182200045325,j,0.28860319999512285,None,,,,,,,,,,,,295552,001,2025-09-25_16h02.31.942,Priming_gender,,2025.1.1,59.45536506579847,2025-09-25 16h02.39.708374 +0700,
นเรศ,พิมพ์ใจ,women.png,นเรศ,men.png,นเรศ,11,11,8,j,0.28354890004266053,None,,,,8,11,11,1,,,,,5.633445999934338,,5.627575699938461,5.633445999934338,5.633445999934338,5.633445999934338,5.633445999934338,5.925395800033584,j,0.28354890004266053,None,,,,,,,,,,,,295552,001,2025-09-25_16h02.31.942,Priming_gender,,2025.1.1,59.45536506579847,2025-09-25 16h02.39.708374 +0700,
กฤษณะ,กาญจนา,men.png,กฤษณะ,men.png,กฤษณะ,12,12,3,k,0.30503619997762144,None,,,,3,12,12,0,,,,,5.94730769994203,,5.941564199980348,5.94730769994203,5.94730769994203,5.94730769994203,5.94730769994203,6.258633099962026,k,0.30503619997762144,None,,,,,,,,,,,,295552,001,2025-09-25_16h02.31.942,Priming_gender,,2025.1.1,59.45536506579847,2025-09-25 16h02.39.708374 +0700,
กฤษณะ,กาญจนา,men.png,กฤษณะ,men.png,กฤษณะ,13,13,4,k,0.2941480999579653,None,,,,4,13,13,0,,,,,6.283122699940577,,6.277303499984555,6.283122699940577,6.283122699940577,6.283122699940577,6.283122699940577,6.592862499994226,k,0.2941480999579653,None,,,,,,,,,,,,295552,001,2025-09-25_16h02.31.942,Priming_gender,,2025.1.1,59.45536506579847,2025-09-25 16h02.39.708374 +0700,
กฤษณะ,กาญจนา,men.png,กฤษณะ,men.png,กฤษณะ,14,14,5,k,0.2526266999775544,None,,,,5,14,14,0,,,,,6.617164499941282,,6.61172709998209,6.617164499941282,6.617164499941282,6.617164499941282,6.617164499941282,6.8757809000089765,k,0.2526266999775544,None,,,,,,,,,,,,295552,001,2025-09-25_16h02.31.942,Priming_gender,,2025.1.1,59.45536506579847,2025-09-25 16h02.39.708374 +0700,
กฤษณะ,กาญจนา,men.png,กฤษณะ,men.png,กฤษณะ,15,15,6,k,0.25847709993831813,None,,,,6,15,15,0,,,,,6.899254599935375,,6.8941476999316365,6.899254599935375,6.899254599935375,6.899254599935375,6.899254599935375,7.158802999998443,k,0.25847709993831813,None,,,,,,,,,,,,295552,001,2025-09-25_16h02.31.942,Priming_gender,,2025.1.1,59.45536506579847,2025-09-25 16h02.39.708374 +0700,
นเรศ,พิมพ์ใจ,women.png,นเรศ,men.png,นเรศ,16,16,9,j,0.2911958999466151,None,,,,9,16,16,1,,,,,7.180595200043172,,7.175237499992363,7.180595200043172,7.180595200043172,7.180595200043172,7.180595200043172,7.475164199946448,j,0.2911958999466151,None,,,,,,,,,,,,295552,001,2025-09-25_16h02.31.942,Priming_gender,,2025.1.1,59.45536506579847,2025-09-25 16h02.39.708374 +0700,
กฤษณะ,กาญจนา,men.png,กฤษณะ,men.png,กฤษณะ,17,17,7,k,0.27079199999570847,None,,,,7,17,17,0,,,,,7.498324399930425,,7.49294100003317,7.498324399930425,7.498324399930425,7.498324399930425,7.498324399930425,7.776054600020871,k,0.27079199999570847,None,,,,,,,,,,,,295552,001,2025-09-25_16h02.31.942,Priming_gender,,2025.1.1,59.45536506579847,2025-09-25 16h02.39.708374 +0700,
กฤษณะ,กาญจนา,men.png,กฤษณะ,men.png,กฤษณะ,18,18,8,j,0.2892769000027329,None,,,,8,18,18,0,,,,,7.798945699934848,,7.793707099976018,7.798945699934848,7.798945699934848,7.798945699934848,7.798945699934848,8.092046199948527,j,0.2892769000027329,None,,,,,,,,,,,,295552,001,2025-09-25_16h02.31.942,Priming_gender,,2025.1.1,59.45536506579847,2025-09-25 16h02.39.708374 +0700,
กฤษณะ,กาญจนา,men.png,กฤษณะ,men.png,กฤษณะ,19,19,9,k,0.2774730999954045,None,,,,9,19,19,0,,,,,8.11603080003988,,8.11062569997739,8.11603080003988,8.11603080003988,8.11603080003988,8.11603080003988,8.408743300009519,k,0.2774730999954045,None,,,,,,,,,,,,295552,001,2025-09-25_16h02.31.942,Priming_gender,,2025.1.1,59.45536506579847,2025-09-25 16h02.39.708374 +0700,
กฤษณะ,กาญจนา,men.png,กฤษณะ,men.png,กฤษณะ,20,20,10,k,0.24742029991466552,None,,,,10,20,20,0,,,,,8.432617599959485,,8.426345499930903,8.432617599959485,8.432617599959485,8.432617599959485,8.432617599959485,8.692765499930829,k,0.24742029991466552,None,,,,,,,,,,,,295552,001,2025-09-25_16h02.31.942,Priming_gender,,2025.1.1,59.45536506579847,2025-09-25 16h02.39.708374 +0700,
นเรศ,พิมพ์ใจ,women.png,นเรศ,men.png,นเรศ,21,21,10,j,0.26835879997815937,None,,,,10,21,21,1,,,,,8.715823699953035,,8.710568999988027,8.715823699953035,8.715823699953035,8.715823699953035,8.715823699953035,8.993208199972287,j,0.26835879997815937,None,,,,,,,,,,,,295552,001,2025-09-25_16h02.31.942,Priming_gender,,2025.1.1,59.45536506579847,2025-09-25 16h02.39.708374 +0700,
นเรศ,พิมพ์ใจ,women.png,นเรศ,men.png,นเรศ,22,22,11,j,0.2713817999465391,None,,,,11,22,22,1,,,,,9.016397299943492,,9.010754499933682,9.016397299943492,9.016397299943492,9.016397299943492,9.016397299943492,9.292951899929903,j,0.2713817999465391,None,,,,,,,,,,,,295552,001,2025-09-25_16h02.31.942,Priming_gender,,2025.1.1,59.45536506579847,2025-09-25 16h02.39.708374 +0700,
กฤษณะ,กาญจนา,men.png,กฤษณะ,men.png,กฤษณะ,23,23,11,k,0.27800890000071377,None,,,,11,23,23,0,,,,,9.315632699988782,,9.310632499982603,9.315632699988782,9.315632699988782,9.315632699988782,9.315632699988782,9.6093666999368,k,0.27800890000071377,None,,,,,,,,,,,,295552,001,2025-09-25_16h02.31.942,Priming_gender,,2025.1.1,59.45536506579847,2025-09-25 16h02.39.708374 +0700,
กฤษณะ,กาญจนา,men.png,กฤษณะ,men.png,กฤษณะ,24,24,12,k,0.2437584000872448,None,,,,12,24,24,0,,,,,9.633869700017385,,9.627149499952793,9.633869700017385,9.633869700017385,9.633869700017385,9.633869700017385,9.891940800007433,k,0.2437584000872448,None,,,,,,,,,,,,295552,001,2025-09-25_16h02.31.942,Priming_gender,,2025.1.1,59.45536506579847,2025-09-25 16h02.39.708374 +0700,
นเรศ,พิมพ์ใจ,women.png,นเรศ,men.png,นเรศ,25,25,12,j,0.2664486999856308,None,,,,12,25,25,1,,,,,9.91536400001496,,9.909937300020829,9.91536400001496,9.91536400001496,9.91536400001496,9.91536400001496,10.191982100019231,j,0.2664486999856308,None,,,,,,,,,,,,295552,001,2025-09-25_16h02.31.942,Priming_gender,,2025.1.1,59.45536506579847,2025-09-25 16h02.39.708374 +0700,
นเรศ,พิมพ์ใจ,women.png,นเรศ,men.png,นเรศ,26,26,13,k,0.27351139998063445,None,,,,13,26,26,1,,,,,10.216138700023293,,10.21014879993163,10.216138700023293,10.216138700023293,10.216138700023293,10.216138700023293,10.492231099982746,k,0.27351139998063445,None,,,,,,,,,,,,295552,001,2025-09-25_16h02.31.942,Priming_gender,,2025.1.1,59.45536506579847,2025-09-25 16h02.39.708374 +0700,
กฤษณะ,กาญจนา,men.png,กฤษณะ,men.png,กฤษณะ,27,27,13,j,0.29215140000451356,None,,,,13,27,27,0,,,,,10.51592110004276,,10.510233100038022,10.51592110004276,10.51592110004276,10.51592110004276,10.51592110004276,10.80871929996647,j,0.29215140000451356,None,,,,,,,,,,,,295552,001,2025-09-25_16h02.31.942,Priming_gender,,2025.1.1,59.45536506579847,2025-09-25 16h02.39.708374 +0700,
นเรศ,พิมพ์ใจ,women.png,นเรศ,men.png,นเรศ,28,28,14,k,0.26508569996804,None,,,,14,28,28,1,,,,,10.83187590003945,,10.8265993000241,10.83187590003945,10.83187590003945,10.83187590003945,10.83187590003945,11.109121999936178,k,0.26508569996804,None,,,,,,,,,,,,295552,001,2025-09-25_16h02.31.942,Priming_gender,,2025.1.1,59.45536506579847,2025-09-25 16h02.39.708374 +0700,
กฤษณะ,กาญจนา,men.png,กฤษณะ,men.png,กฤษณะ,29,29,14,j,0.270693700062111,None,,,,14,29,29,0,,,,,11.134898399934173,,11.129319799947552,11.134898399934173,11.134898399934173,11.134898399934173,11.134898399934173,11.408459799946286,j,0.270693700062111,None,,,,,,,,,,,,295552,001,2025-09-25_16h02.31.942,Priming_gender,,2025.1.1,59.45536506579847,2025-09-25 16h02.39.708374 +0700,
กฤษณะ,กาญจนา,men.png,กฤษณะ,men.png,กฤษณะ,30,30,15,k,0.2783513000467792,None,,,,15,30,30,0,,,,,11.43317620002199,,11.427125599933788,11.43317620002199,11.43317620002199,11.43317620002199,11.43317620002199,11.725455099949613,k,0.2783513000467792,None,,,,,,,,,,,,295552,001,2025-09-25_16h02.31.942,Priming_gender,,2025.1.1,59.45536506579847,2025-09-25 16h02.39.708374 +0700,
กฤษณะ,กาญจนา,men.png,กฤษณะ,men.png,กฤษณะ,31,31,16,j,0.27408340002875775,None,,,,16,31,31,0,,,,,11.749500200035982,,11.744204899994656,11.749500200035982,11.749500200035982,11.749500200035982,11.749500200035982,12.025448099942878,j,0.27408340002875775,None,,,,,,,,,,,,295552,001,2025-09-25_16h02.31.942,Priming_gender,,2025.1.1,59.45536506579847,2025-09-25 16h02.39.708374 +0700,
นเรศ,พิมพ์ใจ,women.png,นเรศ,men.png,นเรศ,32,32,15,k,0.27049560006707907,None,,,,15,32,32,1,,,,,12.050313699990511,,12.044151799986139,12.050313699990511,12.050313699990511,12.050313699990511,12.050313699990511,12.325242199935019,k,0.27049560006707907,None,,,,,,,,,,,,295552,001,2025-09-25_16h02.31.942,Priming_gender,,2025.1.1,59.45536506579847,2025-09-25 16h02.39.708374 +0700,
กฤษณะ,กาญจนา,men.png,กฤษณะ,men.png,กฤษณะ,33,33,17,j,0.34755619999486953,None,,,,17,33,33,0,,,,,12.34924809995573,,12.343665499938652,12.34924809995573,12.34924809995573,12.34924809995573,12.34924809995573,12.708526100032032,j,0.34755619999486953,None,,,,,,,,,,,,295552,001,2025-09-25_16h02.31.942,Priming_gender,,2025.1.1,59.45536506579847,2025-09-25 16h02.39.708374 +0700,
กฤษณะ,กาญจนา,men.png,กฤษณะ,men.png,กฤษณะ,34,34,18,k,0.29667589999735355,None,,,,18,34,34,0,,,,,12.729834800004028,,12.724705999949947,12.729834800004028,12.729834800004028,12.729834800004028,12.729834800004028,13.041796899982728,k,0.29667589999735355,None,,,,,,,,,,,,295552,001,2025-09-25_16h02.31.942,Priming_gender,,2025.1.1,59.45536506579847,2025-09-25 16h02.39.708374 +0700,
นเรศ,พิมพ์ใจ,women.png,นเรศ,men.png,นเรศ,35,35,16,j,0.2833406999707222,None,,,,16,35,35,1,,,,,13.066049300017767,,13.060279399971478,13.066049300017767,13.066049300017767,13.066049300017767,13.066049300017767,13.35931700002402,j,0.2833406999707222,None,,,,,,,,,,,,295552,001,2025-09-25_16h02.31.942,Priming_gender,,2025.1.1,59.45536506579847,2025-09-25 16h02.39.708374 +0700,
นเรศ,พิมพ์ใจ,women.png,นเรศ,men.png,นเรศ,36,36,17,j,0.24256580008659512,None,,,,17,36,36,1,,,,,13.383708499954082,,13.37787450000178,13.383708499954082,13.383708499954082,13.383708499954082,13.383708499954082,13.642143100034446,j,0.24256580008659512,None,,,,,,,,,,,,295552,001,2025-09-25_16h02.31.942,Priming_gender,,2025.1.1,59.45536506579847,2025-09-25 16h02.39.708374 +0700,
นเรศ,พิมพ์ใจ,women.png,นเรศ,men.png,นเรศ,37,37,18,k,0.30417349992785603,None,,,,18,37,37,1,,,,,13.664655499975197,,13.659680899931118,13.664655499975197,13.664655499975197,13.664655499975197,13.664655499975197,13.975478800013661,k,0.30417349992785603,None,,,,,,,,,,,,295552,001,2025-09-25_16h02.31.942,Priming_gender,,2025.1.1,59.45536506579847,2025-09-25 16h02.39.708374 +0700,
นเรศ,พิมพ์ใจ,women.png,นเรศ,men.png,นเรศ,38,38,19,j,0.2942979000508785,None,,,,19,38,38,1,,,,,13.998634799965657,,13.993325499934144,13.998634799965657,13.998634799965657,13.998634799965657,13.998634799965657,14.308556100004353,j,0.2942979000508785,None,,,,,,,,,,,,295552,001,2025-09-25_16h02.31.942,Priming_gender,,2025.1.1,59.45536506579847,2025-09-25 16h02.39.708374 +0700,
กฤษณะ,กาญจนา,men.png,กฤษณะ,men.png,กฤษณะ,39,39,19,k,0.3053196999244392,None,,,,19,39,39,0,,,,,14.332654700032435,,14.326419799937867,14.332654700032435,14.332654700032435,14.332654700032435,14.332654700032435,14.641697100014426,k,0.3053196999244392,None,,,,,,,,,,,,295552,001,2025-09-25_16h02.31.942,Priming_gender,,2025.1.1,59.45536506579847,2025-09-25 16h02.39.708374 +0700,
None,None,None,None,women.png,กาญจนา,0,0,0,,,,j,1.4714913999196142,None,,,,,0,0,0,30,14.681357100023888,,,,,,,,,,,14.670318700023927,14.681357100023888,14.681357100023888,14.681357100023888,14.681357100023888,15.142337500001304,15.191950800013728,16.15831560001243,j,1.4714913999196142,None,295552,001,2025-09-25_16h02.31.942,Priming_gender,,2025.1.1,59.45536506579847,2025-09-25 16h02.39.708374 +0700,
None,None,None,None,women.png,นเรศ,1,1,0,,,,j,0.9206048001069576,None,,,,,0,1,1,21,16.188830300001428,,,,,,,,,,,16.17996899993159,16.188830300001428,16.188830300001428,16.188830300001428,16.188830300001428,16.659060399979353,16.691787599935196,17.11037829995621,j,0.9206048001069576,None,295552,001,2025-09-25_16h02.31.942,Priming_gender,,2025.1.1,59.45536506579847,2025-09-25 16h02.39.708374 +0700,
วรพล,วรรณา,None,วรพล,men.png,วรพล,2,2,0,,,,j,0.8879782999865711,None,,,,,0,2,2,7,17.14191609993577,,,,,,,,,,,17.133132899994962,17.14191609993577,17.14191609993577,17.14191609993577,17.14191609993577,17.625649699941278,17.641951799974777,18.04188549995888,j,0.8879782999865711,None,295552,001,2025-09-25_16h02.31.942,Priming_gender,,2025.1.1,59.45536506579847,2025-09-25 16h02.39.708374 +0700,
พิสิฐ,ปัทมา,None,พิสิฐ,men.png,พิสิฐ,3,3,0,,,,k,1.1807948000496253,None,,,,,0,3,3,9,18.07223749998957,,,,,,,,,,,18.064795200014487,18.07223749998957,18.07223749998957,18.07223749998957,18.07223749998957,18.540838000015356,18.57490470004268,19.257499899948016,k,1.1807948000496253,None,295552,001,2025-09-25_16h02.31.942,Priming_gender,,2025.1.1,59.45536506579847,2025-09-25 16h02.39.708374 +0700,
None,None,None,None,women.png,ศิริพร,4,4,0,,,,k,1.78565910004545,None,,,,,0,4,4,34,19.28095679997932,,,,,,,,,,,19.273734499933198,19.28095679997932,19.28095679997932,19.28095679997932,19.28095679997932,19.758220999967307,19.791181899956428,21.074744199984707,k,1.78565910004545,None,295552,001,2025-09-25_16h02.31.942,Priming_gender,,2025.1.1,59.45536506579847,2025-09-25 16h02.39.708374 +0700,
None,None,None,None,women.png,ชัยวัฒน์,5,5,0,,,,j,0.7078308999771252,None,,,,,0,5,5,24,21.107064899988472,,,,,,,,,,,21.09921689995099,21.107064899988472,21.107064899988472,21.107064899988472,21.107064899988472,21.574207399971783,21.60795680002775,21.824531099991873,j,0.7078308999771252,None,295552,001,2025-09-25_16h02.31.942,Priming_gender,,2025.1.1,59.45536506579847,2025-09-25 16h02.39.708374 +0700,
กฤษณะ,กาญจนา,men.png,กฤษณะ,men.png,กฤษณะ,6,6,0,,,,k,0.5023480000672862,None,,,,,0,6,6,0,21.855634200037457,,,,,,,,,,,21.848849899950437,21.855634200037457,21.855634200037457,21.855634200037457,21.855634200037457,22.32411929999944,22.35712749999948,22.374769199988805,k,0.5023480000672862,None,295552,001,2025-09-25_16h02.31.942,Priming_gender,,2025.1.1,59.45536506579847,2025-09-25 16h02.39.708374 +0700,
อรรถพล,สุพัตรา,None,อรรถพล,men.png,อรรถพล,7,7,0,,,,k,0.13601949997246265,None,,,,,0,7,7,3,22.402507900027558,,,,,,,,,,,22.395848899963312,22.402507900027558,22.402507900027558,22.402507900027558,22.402507900027558,,,22.540907399961725,k,0.13601949997246265,None,295552,001,2025-09-25_16h02.31.942,Priming_gender,,2025.1.1,59.45536506579847,2025-09-25 16h02.39.708374 +0700,
None,None,None,None,women.png,ปริญญา,8,8,0,,,,k,0.11494320002384484,None,,,,,0,8,8,25,22.56714189995546,,,,,,,,,,,22.560257700039074,22.56714189995546,22.56714189995546,22.56714189995546,22.56714189995546,,,22.691382299992256,k,0.11494320002384484,None,295552,001,2025-09-25_16h02.31.942,Priming_gender,,2025.1.1,59.45536506579847,2025-09-25 16h02.39.708374 +0700,
None,None,None,None,women.png,พิมพ์ใจ,9,9,0,,,,j,0.08776150003541261,None,,,,,0,9,9,31,22.719267299980856,,,,,,,,,,,22.71162459999323,22.719267299980856,22.719267299980856,22.719267299980856,22.719267299980856,,,22.808303199941292,j,0.08776150003541261,None,295552,001,2025-09-25_16h02.31.942,Priming_gender,,2025.1.1,59.45536506579847,2025-09-25 16h02.39.708374 +0700,
None,None,None,None,women.png,ปัทมา,10,10,0,,,,k,0.11235650000162423,None,,,,,0,10,10,39,22.83393820002675,,,,,,,,,,,22.826806999975815,22.83393820002675,22.83393820002675,22.83393820002675,22.83393820002675,,,22.95791110000573,k,0.11235650000162423,None,295552,001,2025-09-25_16h02.31.942,Priming_gender,,2025.1.1,59.45536506579847,2025-09-25 16h02.39.708374 +0700,
ภูมิพัฒน์,จิตติมา,None,ภูมิพัฒน์,men.png,ภูมิพัฒน์,11,11,0,,,,k,0.787008099956438,None,,,,,0,11,11,6,22.986515800002962,,,,,,,,,,,22.97885439998936,22.986515800002962,22.986515800002962,22.986515800002962,22.986515800002962,23.457222800003365,23.491236999980174,23.774146700045094,k,0.787008099956438,None,295552,001,2025-09-25_16h02.31.942,Priming_gender,,2025.1.1,59.45536506579847,2025-09-25 16h02.39.708374 +0700,
None,None,None,ปัทมา,men.png,ปัทมา,12,12,0,,,,k,0.7980081000132486,None,,,,,0,12,12,19,23.79833250003867,,,,,,,,,,,23.792003800044768,23.79833250003867,23.79833250003867,23.79833250003867,23.79833250003867,24.27468170004431,24.30754650000017,24.607669699937105,k,0.7980081000132486,None,295552,001,2025-09-25_16h02.31.942,Priming_gender,,2025.1.1,59.45536506579847,2025-09-25 16h02.39.708374 +0700,
None,None,None,วรรณา,men.png,วรรณา,13,13,0,,,,j,0.9320047000655904,None,,,,,0,13,13,17,24.631782999960706,,,,,,,,,,,24.625180799979717,24.631782999960706,24.631782999960706,24.631782999960706,24.631782999960706,25.107611099956557,25.14105690002907,25.57456069998443,j,0.9320047000655904,None,295552,001,2025-09-25_16h02.31.942,Priming_gender,,2025.1.1,59.45536506579847,2025-09-25 16h02.39.708374 +0700,
None,None,None,None,women.png,พิสิฐ,14,14,0,,,,k,0.5941915999865159,None,,,,,0,14,14,29,25.59965240000747,,,,,,,,,,,25.593252199934795,25.59965240000747,25.59965240000747,25.59965240000747,25.59965240000747,26.074110299930908,26.10759429994505,26.208282600040548,k,0.5941915999865159,None,295552,001,2025-09-25_16h02.31.942,Priming_gender,,2025.1.1,59.45536506579847,2025-09-25 16h02.39.708374 +0700,
None,None,None,None,women.png,ธนพล,15,15,0,,,,j,0.5211937000276521,None,,,,,0,15,15,22,26.236166600021534,,,,,,,,,,,26.228230300010182,26.236166600021534,26.236166600021534,26.236166600021534,26.236166600021534,26.723778899991885,26.74049679993186,26.75802660000045,j,0.5211937000276521,None,295552,001,2025-09-25_16h02.31.942,Priming_gender,,2025.1.1,59.45536506579847,2025-09-25 16h02.39.708374 +0700,
None,None,None,อาภรณ์,men.png,อาภรณ์,16,16,0,,,,k,0.49094719998538494,None,,,,,0,16,16,15,26.78371710004285,,,,,,,,,,,26.776515300036408,26.78371710004285,26.78371710004285,26.78371710004285,26.78371710004285,27.25740889995359,27.29049149993807,27.290944500011392,k,0.49094719998538494,None,295552,001,2025-09-25_16h02.31.942,Priming_gender,,2025.1.1,59.45536506579847,2025-09-25 16h02.39.708374 +0700,
None,None,None,None,women.png,กฤษณะ,17,17,0,,,,j,1.0401270999573171,None,,,,,0,17,17,20,27.31436139997095,,,,,,,,,,,27.307823300012387,27.31436139997095,27.31436139997095,27.31436139997095,27.31436139997095,27.79124910000246,27.823858299991116,28.357812499976717,j,1.0401270999573171,None,295552,001,2025-09-25_16h02.31.942,Priming_gender,,2025.1.1,59.45536506579847,2025-09-25 16h02.39.708374 +0700,
None,None,None,สุพัตรา,men.png,สุพัตรา,18,18,0,,,,k,0.5732951000100002,None,,,,,0,18,18,13,28.386834800010547,,,,,,,,,,,28.37924199993722,28.386834800010547,28.386834800010547,28.386834800010547,28.386834800010547,28.858293800032698,28.89039790001698,28.97395479993429,k,0.5732951000100002,None,295552,001,2025-09-25_16h02.31.942,Priming_gender,,2025.1.1,59.45536506579847,2025-09-25 16h02.39.708374 +0700,
ธนพล,วาสนา,None,ธนพล,men.png,ธนพล,19,19,0,,,,j,0.1442788999993354,None,,,,,0,19,19,2,28.999028699938208,,,,,,,,,,,28.993075600010343,28.999028699938208,28.999028699938208,28.999028699938208,28.999028699938208,,,29.157513999962248,j,0.1442788999993354,None,295552,001,2025-09-25_16h02.31.942,Priming_gender,,2025.1.1,59.45536506579847,2025-09-25 16h02.39.708374 +0700,
None,None,None,None,women.png,สุพัตรา,20,20,0,,,,k,0.10306500003207475,None,,,,,0,20,20,33,29.1809981999686,,,,,,,,,,,29.17425259994343,29.1809981999686,29.1809981999686,29.1809981999686,29.1809981999686,,,29.290624400018714,k,0.10306500003207475,None,295552,001,2025-09-25_16h02.31.942,Priming_gender,,2025.1.1,59.45536506579847,2025-09-25 16h02.39.708374 +0700,
None,None,None,วาสนา,men.png,วาสนา,21,21,0,,,,j,0.08750570006668568,None,,,,,0,21,21,12,29.31556679995265,,,,,,,,,,,29.307608400005847,29.31556679995265,29.31556679995265,29.31556679995265,29.31556679995265,,,29.407427600002848,j,0.08750570006668568,None,295552,001,2025-09-25_16h02.31.942,Priming_gender,,2025.1.1,59.45536506579847,2025-09-25 16h02.39.708374 +0700,
นเรศ,พิมพ์ใจ,women.png,นเรศ,men.png,นเรศ,22,22,0,,,,k,0.06962899991776794,None,,,,,0,22,22,1,29.431387100019492,,,,,,,,,,,29.424911399954,29.431387100019492,29.431387100019492,29.431387100019492,29.431387100019492,,,29.50718339998275,k,0.06962899991776794,None,295552,001,2025-09-25_16h02.31.942,Priming_gender,,2025.1.1,59.45536506579847,2025-09-25 16h02.39.708374 +0700,
None,None,None,None,women.png,วาสนา,23,23,0,,,,j,0.05814530001953244,None,,,,,0,23,23,32,29.52966360002756,,,,,,,,,,,29.523602499975823,29.52966360002756,29.52966360002756,29.52966360002756,29.52966360002756,,,29.590270999935456,j,0.05814530001953244,None,295552,001,2025-09-25_16h02.31.942,Priming_gender,,2025.1.1,59.45536506579847,2025-09-25 16h02.39.708374 +0700,
ปริญญา,อาภรณ์,None,ปริญญา,men.png,ปริญญา,24,24,0,,,,k,0.06167960003949702,None,,,,,0,24,24,5,29.614009300014004,,,,,,,,,,,29.607065199990757,29.614009300014004,29.614009300014004,29.614009300014004,29.614009300014004,,,29.69354430004023,k,0.06167960003949702,None,295552,001,2025-09-25_16h02.31.942,Priming_gender,,2025.1.1,59.45536506579847,2025-09-25 16h02.39.708374 +0700,
None,None,None,None,women.png,จิตติมา,25,25,0,,,,j,0.026537799974903464,None,,,,,0,25,25,36,29.716623799991794,,,,,,,,,,,29.710226999945007,29.716623799991794,29.716623799991794,29.716623799991794,29.716623799991794,,,29.757707400014624,j,0.026537799974903464,None,295552,001,2025-09-25_16h02.31.942,Priming_gender,,2025.1.1,59.45536506579847,2025-09-25 16h02.39.708374 +0700,
None,None,None,None,women.png,ศักดิ์สิทธิ์,26,26,0,,,,k,0.04930660000536591,None,,,,,0,26,26,28,29.78404259996023,,,,,,,,,,,29.776339399977587,29.78404259996023,29.78404259996023,29.78404259996023,29.78404259996023,,,29.841337500023656,k,0.04930660000536591,None,295552,001,2025-09-25_16h02.31.942,Priming_gender,,2025.1.1,59.45536506579847,2025-09-25 16h02.39.708374 +0700,
None,None,None,None,women.png,สุนิสา,27,27,0,,,,j,0.03871540003456175,None,,,,,0,27,27,38,29.864326099981554,,,,,,,,,,,29.85799369995948,29.864326099981554,29.864326099981554,29.864326099981554,29.864326099981554,,,29.90732300002128,j,0.03871540003456175,None,295552,001,2025-09-25_16h02.31.942,Priming_gender,,2025.1.1,59.45536506579847,2025-09-25 16h02.39.708374 +0700,
ศักดิ์สิทธิ์,สุนิสา,None,ศักดิ์สิทธิ์,men.png,ศักดิ์สิทธิ์,28,28,0,,,,k,0.22041750000789762,None,,,,,0,28,28,8,29.930447399965487,,,,,,,,,,,29.924346999963745,29.930447399965487,29.930447399965487,29.930447399965487,29.930447399965487,,,30.15747029997874,k,0.22041750000789762,None,295552,001,2025-09-25_16h02.31.942,Priming_gender,,2025.1.1,59.45536506579847,2025-09-25 16h02.39.708374 +0700,
None,None,None,None,women.png,วรพล,29,29,0,,,,j,0.10545299993827939,None,,,,,0,29,29,27,30.179428400006145,,,,,,,,,,,30.172963800025173,30.179428400006145,30.179428400006145,30.179428400006145,30.179428400006145,,,30.29101109993644,j,0.10545299993827939,None,295552,001,2025-09-25_16h02.31.942,Priming_gender,,2025.1.1,59.45536506579847,2025-09-25 16h02.39.708374 +0700,
ชัยวัฒน์,ศิริพร,None,ชัยวัฒน์,men.png,ชัยวัฒน์,30,30,0,,,,k,0.27729009999893606,None,,,,,0,30,30,4,30.31324309995398,,,,,,,,,,,30.30725860001985,30.31324309995398,30.31324309995398,30.31324309995398,30.31324309995398,,,30.59127279999666,k,0.27729009999893606,None,295552,001,2025-09-25_16h02.31.942,Priming_gender,,2025.1.1,59.45536506579847,2025-09-25 16h02.39.708374 +0700,
None,None,None,กาญจนา,men.png,กาญจนา,31,31,0,,,,j,0.08354869997128844,None,,,,,0,31,31,10,30.613843300030567,,,,,,,,,,,30.60706619999837,30.613843300030567,30.613843300030567,30.613843300030567,30.613843300030567,,,30.707371199969202,j,0.08354869997128844,None,295552,001,2025-09-25_16h02.31.942,Priming_gender,,2025.1.1,59.45536506579847,2025-09-25 16h02.39.708374 +0700,
None,None,None,None,women.png,อาภรณ์,32,32,0,,,,k,0.23661909997463226,None,,,,,0,32,32,35,30.7291895999806,,,,,,,,,,,30.723086899961345,30.7291895999806,30.7291895999806,30.7291895999806,30.7291895999806,,,30.974118300015107,k,0.23661909997463226,None,295552,001,2025-09-25_16h02.31.942,Priming_gender,,2025.1.1,59.45536506579847,2025-09-25 16h02.39.708374 +0700,
None,None,None,พิมพ์ใจ,men.png,พิมพ์ใจ,33,33,0,,,,j,0.09653570002410561,None,,,,,0,33,33,11,30.995826400001533,,,,,,,,,,,30.98944090004079,30.995826400001533,30.995826400001533,30.995826400001533,30.995826400001533,,,31.107158400001936,j,0.09653570002410561,None,295552,001,2025-09-25_16h02.31.942,Priming_gender,,2025.1.1,59.45536506579847,2025-09-25 16h02.39.708374 +0700,
None,None,None,None,women.png,ภูมิพัฒน์,34,34,0,,,,k,0.19396649999544024,None,,,,,0,34,34,26,31.12918389996048,,,,,,,,,,,31.123029400012456,31.12918389996048,31.12918389996048,31.12918389996048,31.12918389996048,,,31.323896799935028,k,0.19396649999544024,None,295552,001,2025-09-25_16h02.31.942,Priming_gender,,2025.1.1,59.45536506579847,2025-09-25 16h02.39.708374 +0700,
None,None,None,None,women.png,วรรณา,35,35,0,,,,k,0.20045409991871566,None,,,,,0,35,35,37,31.345532099949196,,,,,,,,,,,31.339164500008337,31.345532099949196,31.345532099949196,31.345532099949196,31.345532099949196,,,31.557066699955612,k,0.20045409991871566,None,295552,001,2025-09-25_16h02.31.942,Priming_gender,,2025.1.1,59.45536506579847,2025-09-25 16h02.39.708374 +0700,
None,None,None,จิตติมา,men.png,จิตติมา,36,36,0,,,,j,0.15771189995575696,None,,,,,0,36,36,16,31.580024800030515,,,,,,,,,,,31.57379569998011,31.580024800030515,31.580024800030515,31.580024800030515,31.580024800030515,,,31.7427522999933,j,0.15771189995575696,None,295552,001,2025-09-25_16h02.31.942,Priming_gender,,2025.1.1,59.45536506579847,2025-09-25 16h02.39.708374 +0700,
None,None,None,สุนิสา,men.png,สุนิสา,37,37,0,,,,k,0.1793028999818489,None,,,,,0,37,37,18,31.76418559998274,,,,,,,,,,,31.758142999955453,31.76418559998274,31.76418559998274,31.76418559998274,31.76418559998274,,,31.95724000001792,k,0.1793028999818489,None,295552,001,2025-09-25_16h02.31.942,Priming_gender,,2025.1.1,59.45536506579847,2025-09-25 16h02.39.708374 +0700,
None,None,None,ศิริพร,men.png,ศิริพร,38,38,0,,,,k,0.1581319000106305,None,,,,,0,38,38,14,31.98041870002635,,,,,,,,,,,31.973974899970926,31.98041870002635,31.98041870002635,31.98041870002635,31.98041870002635,,,32.14058460004162,k,0.1581319000106305,None,295552,001,2025-09-25_16h02.31.942,Priming_gender,,2025.1.1,59.45536506579847,2025-09-25 16h02.39.708374 +0700,
None,None,None,None,women.png,อรรถพล,39,39,0,,,,k,0.18334069999400526,None,,,,,0,39,39,23,32.16279830003623,,,,,,,,,,,32.155657200026326,32.16279830003623,32.16279830003623,32.16279830003623,32.16279830003623,,,32.35736719996203,k,0.18334069999400526,None,295552,001,2025-09-25_16h02.31.942,Priming_gender,,2025.1.1,59.45536506579847,2025-09-25 16h02.39.708374 +0700,
