Male,Female,Image,Name,ImagePriming,NamePriming,thisN,thisTrialN,thisRepN,key_resp.keys,key_resp.rt,key_resp.duration,key_resp_3.keys,key_resp_3.rt,key_resp_3.duration,training.thisRepN,training.thisTrialN,training.thisN,training.thisIndex,priming.thisRepN,priming.thisTrialN,priming.thisN,priming.thisIndex,thisRow.t,notes,Instructions.started,instruction_slide.started,instruction_continue.started,Instructions.stopped,instruction_continue.keys,instruction_continue.rt,instruction_continue.duration,training_block.started,MAN.started,WOMAN.started,pic.started,key_resp.started,training_block.stopped,training.key_resp.keys,training.key_resp.rt,training.key_resp.duration,priming_block.started,MAN_3.started,WOMAN_3.started,name_2.started,key_resp_3.started,pic_2.started,name_2.stopped,priming_block.stopped,priming.key_resp_3.keys,priming.key_resp_3.rt,priming.key_resp_3.duration,participant,session,date,expName,expVersion,psychopyVersion,frameRate,expStart,
,,,,,,,,,,,,,,,,,,,,,,,,,0.005791999981738627,0.012968599912710488,0.012968599912710488,1.5993419999722391,space,1.5741175001021475,None,,,,,,,,,,,,,,,,,,,,,314513,001,2025-09-25_17h11.35.257,Priming_gender,,2025.1.1,60.013743112089394,2025-09-25 17h11.38.523931 +0700,
กฤษณะ,กาญจนา,men.png,กฤษณะ,men.png,กฤษณะ,0,0,0,j,3.12977050000336,None,,,,0,0,0,0,,,,,1.629720599972643,,,,,,,,,1.6214885999215767,1.629720599972643,1.629720599972643,1.629720599972643,1.629720599972643,4.762687199981883,j,3.12977050000336,None,,,,,,,,,,,,314513,001,2025-09-25_17h11.35.257,Priming_gender,,2025.1.1,60.013743112089394,2025-09-25 17h11.38.523931 +0700,
นเรศ,พิมพ์ใจ,women.png,นเรศ,men.png,นเรศ,1,1,0,k,0.6575366000179201,None,,,,0,1,1,1,,,,,4.785761599894613,,,,,,,,,4.780082799959928,4.785761599894613,4.785761599894613,4.785761599894613,4.785761599894613,5.445435799891129,k,0.6575366000179201,None,,,,,,,,,,,,314513,001,2025-09-25_17h11.35.257,Priming_gender,,2025.1.1,60.013743112089394,2025-09-25 17h11.38.523931 +0700,
นเรศ,พิมพ์ใจ,women.png,นเรศ,men.png,นเรศ,2,2,1,j,0.542521100025624,None,,,,1,2,2,1,,,,,5.469149499898776,,,,,,,,,5.463955399929546,5.469149499898776,5.469149499898776,5.469149499898776,5.469149499898776,6.028504299931228,j,0.542521100025624,None,,,,,,,,,,,,314513,001,2025-09-25_17h11.35.257,Priming_gender,,2025.1.1,60.013743112089394,2025-09-25 17h11.38.523931 +0700,
นเรศ,พิมพ์ใจ,women.png,นเรศ,men.png,นเรศ,3,3,2,j,0.5924262000480667,None,,,,2,3,3,1,,,,,6.051412799977697,,,,,,,,,6.046235399902798,6.051412799977697,6.051412799977697,6.051412799977697,6.051412799977697,6.645649799960665,j,0.5924262000480667,None,,,,,,,,,,,,314513,001,2025-09-25_17h11.35.257,Priming_gender,,2025.1.1,60.013743112089394,2025-09-25 17h11.38.523931 +0700,
นเรศ,พิมพ์ใจ,women.png,นเรศ,men.png,นเรศ,4,4,3,k,0.19358660001307726,None,,,,3,4,4,1,,,,,6.6711859999923036,,,,,,,,,6.666312599903904,6.6711859999923036,6.6711859999923036,6.6711859999923036,6.6711859999923036,6.8783294999739155,k,0.19358660001307726,None,,,,,,,,,,,,314513,001,2025-09-25_17h11.35.257,Priming_gender,,2025.1.1,60.013743112089394,2025-09-25 17h11.38.523931 +0700,
นเรศ,พิมพ์ใจ,women.png,นเรศ,men.png,นเรศ,5,5,4,k,0.1477053000126034,None,,,,4,5,5,1,,,,,6.900877699954435,,,,,,,,,6.896149599924684,6.900877699954435,6.900877699954435,6.900877699954435,6.900877699954435,7.06210199999623,k,0.1477053000126034,None,,,,,,,,,,,,314513,001,2025-09-25_17h11.35.257,Priming_gender,,2025.1.1,60.013743112089394,2025-09-25 17h11.38.523931 +0700,
กฤษณะ,กาญจนา,men.png,กฤษณะ,men.png,กฤษณะ,6,6,1,k,0.15679969999473542,None,,,,1,6,6,0,,,,,7.08556849998422,,,,,,,,,7.080601099994965,7.08556849998422,7.08556849998422,7.08556849998422,7.08556849998422,7.245041499962099,k,0.15679969999473542,None,,,,,,,,,,,,314513,001,2025-09-25_17h11.35.257,Priming_gender,,2025.1.1,60.013743112089394,2025-09-25 17h11.38.523931 +0700,
กฤษณะ,กาญจนา,men.png,กฤษณะ,men.png,กฤษณะ,7,7,2,j,0.15788019995670766,None,,,,2,7,7,0,,,,,7.268324599950574,,,,,,,,,7.263259599916637,7.268324599950574,7.268324599950574,7.268324599950574,7.268324599950574,7.4291672999970615,j,0.15788019995670766,None,,,,,,,,,,,,314513,001,2025-09-25_17h11.35.257,Priming_gender,,2025.1.1,60.013743112089394,2025-09-25 17h11.38.523931 +0700,
นเรศ,พิมพ์ใจ,women.png,นเรศ,men.png,นเรศ,8,8,5,k,0.16039119998458773,None,,,,5,8,8,1,,,,,7.452405999996699,,,,,,,,,7.447568199946545,7.452405999996699,7.452405999996699,7.452405999996699,7.452405999996699,7.628450499963947,k,0.16039119998458773,None,,,,,,,,,,,,314513,001,2025-09-25_17h11.35.257,Priming_gender,,2025.1.1,60.013743112089394,2025-09-25 17h11.38.523931 +0700,
กฤษณะ,กาญจนา,men.png,กฤษณะ,men.png,กฤษณะ,9,9,3,j,0.14922039990779012,None,,,,3,9,9,0,,,,,7.652068699942902,,,,,,,,,7.647337000002153,7.652068699942902,7.652068699942902,7.652068699942902,7.652068699942902,7.811600899905898,j,0.14922039990779012,None,,,,,,,,,,,,314513,001,2025-09-25_17h11.35.257,Priming_gender,,2025.1.1,60.013743112089394,2025-09-25 17h11.38.523931 +0700,
กฤษณะ,กาญจนา,men.png,กฤษณะ,men.png,กฤษณะ,10,10,4,k,0.1458130000391975,None,,,,4,10,10,0,,,,,7.834623799892142,,,,,,,,,7.829747299896553,7.834623799892142,7.834623799892142,7.834623799892142,7.834623799892142,7.995093499892391,k,0.1458130000391975,None,,,,,,,,,,,,314513,001,2025-09-25_17h11.35.257,Priming_gender,,2025.1.1,60.013743112089394,2025-09-25 17h11.38.523931 +0700,
กฤษณะ,กาญจนา,men.png,กฤษณะ,men.png,กฤษณะ,11,11,5,k,0.11733559996355325,None,,,,5,11,11,0,,,,,8.016864999895915,,,,,,,,,8.011785999988206,8.016864999895915,8.016864999895915,8.016864999895915,8.016864999895915,8.1449953999836,k,0.11733559996355325,None,,,,,,,,,,,,314513,001,2025-09-25_17h11.35.257,Priming_gender,,2025.1.1,60.013743112089394,2025-09-25 17h11.38.523931 +0700,
กฤษณะ,กาญจนา,men.png,กฤษณะ,men.png,กฤษณะ,12,12,6,k,0.10399780003353953,None,,,,6,12,12,0,,,,,8.168480399996042,,,,,,,,,8.163414499955252,8.168480399996042,8.168480399996042,8.168480399996042,8.168480399996042,8.278571699978784,k,0.10399780003353953,None,,,,,,,,,,,,314513,001,2025-09-25_17h11.35.257,Priming_gender,,2025.1.1,60.013743112089394,2025-09-25 17h11.38.523931 +0700,
นเรศ,พิมพ์ใจ,women.png,นเรศ,men.png,นเรศ,13,13,6,k,0.11753139994107187,None,,,,6,13,13,1,,,,,8.30223799997475,,,,,,,,,8.297466399963014,8.30223799997475,8.30223799997475,8.30223799997475,8.30223799997475,8.428773799911141,k,0.11753139994107187,None,,,,,,,,,,,,314513,001,2025-09-25_17h11.35.257,Priming_gender,,2025.1.1,60.013743112089394,2025-09-25 17h11.38.523931 +0700,
นเรศ,พิมพ์ใจ,women.png,นเรศ,men.png,นเรศ,14,14,7,j,0.11988750007003546,None,,,,7,14,14,1,,,,,8.452924199984409,,,,,,,,,8.447915499913506,8.452924199984409,8.452924199984409,8.452924199984409,8.452924199984409,8.578542499919422,j,0.11988750007003546,None,,,,,,,,,,,,314513,001,2025-09-25_17h11.35.257,Priming_gender,,2025.1.1,60.013743112089394,2025-09-25 17h11.38.523931 +0700,
กฤษณะ,กาญจนา,men.png,กฤษณะ,men.png,กฤษณะ,15,15,7,k,0.18730640003923327,None,,,,7,15,15,0,,,,,8.600034200004302,,,,,,,,,8.595196399954148,8.600034200004302,8.600034200004302,8.600034200004302,8.600034200004302,8.794862799928524,k,0.18730640003923327,None,,,,,,,,,,,,314513,001,2025-09-25_17h11.35.257,Priming_gender,,2025.1.1,60.013743112089394,2025-09-25 17h11.38.523931 +0700,
นเรศ,พิมพ์ใจ,women.png,นเรศ,men.png,นเรศ,16,16,8,j,0.14776680001523346,None,,,,8,16,16,1,,,,,8.816201699897647,,,,,,,,,8.811630899901502,8.816201699897647,8.816201699897647,8.816201699897647,8.816201699897647,8.978260599891655,j,0.14776680001523346,None,,,,,,,,,,,,314513,001,2025-09-25_17h11.35.257,Priming_gender,,2025.1.1,60.013743112089394,2025-09-25 17h11.38.523931 +0700,
นเรศ,พิมพ์ใจ,women.png,นเรศ,men.png,นเรศ,17,17,9,k,0.14341320004314184,None,,,,9,17,17,1,,,,,9.002567199990153,,,,,,,,,8.996939799981192,9.002567199990153,9.002567199990153,9.002567199990153,9.002567199990153,9.162135699996725,k,0.14341320004314184,None,,,,,,,,,,,,314513,001,2025-09-25_17h11.35.257,Priming_gender,,2025.1.1,60.013743112089394,2025-09-25 17h11.38.523931 +0700,
นเรศ,พิมพ์ใจ,women.png,นเรศ,men.png,นเรศ,18,18,10,j,0.12152669997885823,None,,,,10,18,18,1,,,,,9.185201499960385,,,,,,,,,9.180238300003111,9.185201499960385,9.185201499960385,9.185201499960385,9.185201499960385,9.31181869993452,j,0.12152669997885823,None,,,,,,,,,,,,314513,001,2025-09-25_17h11.35.257,Priming_gender,,2025.1.1,60.013743112089394,2025-09-25 17h11.38.523931 +0700,
นเรศ,พิมพ์ใจ,women.png,นเรศ,men.png,นเรศ,19,19,11,k,0.16347050003241748,None,,,,11,19,19,1,,,,,9.335092699970119,,,,,,,,,9.330018599983305,9.335092699970119,9.335092699970119,9.335092699970119,9.335092699970119,9.512182399979793,k,0.16347050003241748,None,,,,,,,,,,,,314513,001,2025-09-25_17h11.35.257,Priming_gender,,2025.1.1,60.013743112089394,2025-09-25 17h11.38.523931 +0700,
กฤษณะ,กาญจนา,men.png,กฤษณะ,men.png,กฤษณะ,20,20,8,k,0.12803810008335859,None,,,,8,20,20,0,,,,,9.535481799975969,,,,,,,,,9.53053479990922,9.535481799975969,9.535481799975969,9.535481799975969,9.535481799975969,9.679040999966674,k,0.12803810008335859,None,,,,,,,,,,,,314513,001,2025-09-25_17h11.35.257,Priming_gender,,2025.1.1,60.013743112089394,2025-09-25 17h11.38.523931 +0700,
กฤษณะ,กาญจนา,men.png,กฤษณะ,men.png,กฤษณะ,21,21,9,k,0.127733200090006,None,,,,9,21,21,0,,,,,9.701904899906367,,,,,,,,,9.697204599971883,9.701904899906367,9.701904899906367,9.701904899906367,9.701904899906367,9.845025099930353,k,0.127733200090006,None,,,,,,,,,,,,314513,001,2025-09-25_17h11.35.257,Priming_gender,,2025.1.1,60.013743112089394,2025-09-25 17h11.38.523931 +0700,
นเรศ,พิมพ์ใจ,women.png,นเรศ,men.png,นเรศ,22,22,12,k,0.1263473000144586,None,,,,12,22,22,1,,,,,9.869438499910757,,,,,,,,,9.863583599915728,9.869438499910757,9.869438499910757,9.869438499910757,9.869438499910757,10.011618599994108,k,0.1263473000144586,None,,,,,,,,,,,,314513,001,2025-09-25_17h11.35.257,Priming_gender,,2025.1.1,60.013743112089394,2025-09-25 17h11.38.523931 +0700,
กฤษณะ,กาญจนา,men.png,กฤษณะ,men.png,กฤษณะ,23,23,10,k,0.1277237000176683,None,,,,10,23,23,0,,,,,10.03480949997902,,,,,,,,,10.030148899997585,10.03480949997902,10.03480949997902,10.03480949997902,10.03480949997902,10.177957899984904,k,0.1277237000176683,None,,,,,,,,,,,,314513,001,2025-09-25_17h11.35.257,Priming_gender,,2025.1.1,60.013743112089394,2025-09-25 17h11.38.523931 +0700,
กฤษณะ,กาญจนา,men.png,กฤษณะ,men.png,กฤษณะ,24,24,11,k,0.12805589998606592,None,,,,11,24,24,0,,,,,10.201904499903321,,,,,,,,,10.196419999934733,10.201904499903321,10.201904499903321,10.201904499903321,10.201904499903321,10.345260999980383,k,0.12805589998606592,None,,,,,,,,,,,,314513,001,2025-09-25_17h11.35.257,Priming_gender,,2025.1.1,60.013743112089394,2025-09-25 17h11.38.523931 +0700,
กฤษณะ,กาญจนา,men.png,กฤษณะ,men.png,กฤษณะ,25,25,12,k,0.1356122000142932,None,,,,12,25,25,0,,,,,10.368003499927,,,,,,,,,10.36231019999832,10.368003499927,10.368003499927,10.368003499927,10.368003499927,10.511634499998763,k,0.1356122000142932,None,,,,,,,,,,,,314513,001,2025-09-25_17h11.35.257,Priming_gender,,2025.1.1,60.013743112089394,2025-09-25 17h11.38.523931 +0700,
นเรศ,พิมพ์ใจ,women.png,นเรศ,men.png,นเรศ,26,26,13,j,0.15111940004862845,None,,,,13,26,26,1,,,,,10.534724399913102,,,,,,,,,10.530188799952157,10.534724399913102,10.534724399913102,10.534724399913102,10.534724399913102,10.695049999980256,j,0.15111940004862845,None,,,,,,,,,,,,314513,001,2025-09-25_17h11.35.257,Priming_gender,,2025.1.1,60.013743112089394,2025-09-25 17h11.38.523931 +0700,
นเรศ,พิมพ์ใจ,women.png,นเรศ,men.png,นเรศ,27,27,14,j,0.12883920001331717,None,,,,14,27,27,1,,,,,10.716811399906874,,,,,,,,,10.711374999955297,10.716811399906874,10.716811399906874,10.716811399906874,10.716811399906874,10.861711599980481,j,0.12883920001331717,None,,,,,,,,,,,,314513,001,2025-09-25_17h11.35.257,Priming_gender,,2025.1.1,60.013743112089394,2025-09-25 17h11.38.523931 +0700,
นเรศ,พิมพ์ใจ,women.png,นเรศ,men.png,นเรศ,28,28,15,j,0.09808030002750456,None,,,,15,28,28,1,,,,,10.883141299942508,,,,,,,,,10.878565599909052,10.883141299942508,10.883141299942508,10.883141299942508,10.883141299942508,10.995039299945347,j,0.09808030002750456,None,,,,,,,,,,,,314513,001,2025-09-25_17h11.35.257,Priming_gender,,2025.1.1,60.013743112089394,2025-09-25 17h11.38.523931 +0700,
นเรศ,พิมพ์ใจ,women.png,นเรศ,men.png,นเรศ,29,29,16,j,0.11118269991129637,None,,,,16,29,29,1,,,,,11.017705200007185,,,,,,,,,11.013043899904005,11.017705200007185,11.017705200007185,11.017705200007185,11.017705200007185,11.144781399983913,j,0.11118269991129637,None,,,,,,,,,,,,314513,001,2025-09-25_17h11.35.257,Priming_gender,,2025.1.1,60.013743112089394,2025-09-25 17h11.38.523931 +0700,
นเรศ,พิมพ์ใจ,women.png,นเรศ,men.png,นเรศ,30,30,17,j,0.6144441000651568,None,,,,17,30,30,1,,,,,11.167658799909987,,,,,,,,,11.163360999897122,11.167658799909987,11.167658799909987,11.167658799909987,11.167658799909987,11.79481659992598,j,0.6144441000651568,None,,,,,,,,,,,,314513,001,2025-09-25_17h11.35.257,Priming_gender,,2025.1.1,60.013743112089394,2025-09-25 17h11.38.523931 +0700,
กฤษณะ,กาญจนา,men.png,กฤษณะ,men.png,กฤษณะ,31,31,13,j,0.3908805000828579,None,,,,13,31,31,0,,,,,11.818027499946766,,,,,,,,,11.812914999900386,11.818027499946766,11.818027499946766,11.818027499946766,11.818027499946766,12.211665199953131,j,0.3908805000828579,None,,,,,,,,,,,,314513,001,2025-09-25_17h11.35.257,Priming_gender,,2025.1.1,60.013743112089394,2025-09-25 17h11.38.523931 +0700,
นเรศ,พิมพ์ใจ,women.png,นเรศ,men.png,นเรศ,32,32,18,k,0.2960960000054911,None,,,,18,32,32,1,,,,,12.234588299994357,,,,,,,,,12.229529100004584,12.234588299994357,12.234588299994357,12.234588299994357,12.234588299994357,12.544869899982587,k,0.2960960000054911,None,,,,,,,,,,,,314513,001,2025-09-25_17h11.35.257,Priming_gender,,2025.1.1,60.013743112089394,2025-09-25 17h11.38.523931 +0700,
กฤษณะ,กาญจนา,men.png,กฤษณะ,men.png,กฤษณะ,33,33,14,j,0.24937810003757477,None,,,,14,33,33,0,,,,,12.566449899924919,,,,,,,,,12.561733199981973,12.566449899924919,12.566449899924919,12.566449899924919,12.566449899924919,12.828514199936762,j,0.24937810003757477,None,,,,,,,,,,,,314513,001,2025-09-25_17h11.35.257,Priming_gender,,2025.1.1,60.013743112089394,2025-09-25 17h11.38.523931 +0700,
นเรศ,พิมพ์ใจ,women.png,นเรศ,men.png,นเรศ,34,34,19,k,0.27008739998564124,None,,,,19,34,34,1,,,,,12.852084199897945,,,,,,,,,12.846946799894795,12.852084199897945,12.852084199897945,12.852084199897945,12.852084199897945,13.127998999902047,k,0.27008739998564124,None,,,,,,,,,,,,314513,001,2025-09-25_17h11.35.257,Priming_gender,,2025.1.1,60.013743112089394,2025-09-25 17h11.38.523931 +0700,
กฤษณะ,กาญจนา,men.png,กฤษณะ,men.png,กฤษณะ,35,35,15,j,0.23846779996529222,None,,,,15,35,35,0,,,,,13.15264829993248,,,,,,,,,13.146486999932677,13.15264829993248,13.15264829993248,13.15264829993248,13.15264829993248,13.394946299958974,j,0.23846779996529222,None,,,,,,,,,,,,314513,001,2025-09-25_17h11.35.257,Priming_gender,,2025.1.1,60.013743112089394,2025-09-25 17h11.38.523931 +0700,
กฤษณะ,กาญจนา,men.png,กฤษณะ,men.png,กฤษณะ,36,36,16,k,0.2512619000626728,None,,,,16,36,36,0,,,,,13.4179733999772,,,,,,,,,13.413052499992773,13.4179733999772,13.4179733999772,13.4179733999772,13.4179733999772,13.678774999920279,k,0.2512619000626728,None,,,,,,,,,,,,314513,001,2025-09-25_17h11.35.257,Priming_gender,,2025.1.1,60.013743112089394,2025-09-25 17h11.38.523931 +0700,
กฤษณะ,กาญจนา,men.png,กฤษณะ,men.png,กฤษณะ,37,37,17,j,0.27779810002539307,None,,,,17,37,37,0,,,,,13.703144899918698,,,,,,,,,13.697102699894458,13.703144899918698,13.703144899918698,13.703144899918698,13.703144899918698,13.99505019991193,j,0.27779810002539307,None,,,,,,,,,,,,314513,001,2025-09-25_17h11.35.257,Priming_gender,,2025.1.1,60.013743112089394,2025-09-25 17h11.38.523931 +0700,
กฤษณะ,กาญจนา,men.png,กฤษณะ,men.png,กฤษณะ,38,38,18,j,0.22962550004012883,None,,,,18,38,38,0,,,,,14.018842399935238,,,,,,,,,14.013894899981096,14.018842399935238,14.018842399935238,14.018842399935238,14.018842399935238,14.261614799965173,j,0.22962550004012883,None,,,,,,,,,,,,314513,001,2025-09-25_17h11.35.257,Priming_gender,,2025.1.1,60.013743112089394,2025-09-25 17h11.38.523931 +0700,
กฤษณะ,กาญจนา,men.png,กฤษณะ,men.png,กฤษณะ,39,39,19,j,0.25964780000504106,None,,,,19,39,39,0,,,,,14.285019299946725,,,,,,,,,14.2795767999487,14.285019299946725,14.285019299946725,14.285019299946725,14.285019299946725,14.561254399945028,j,0.25964780000504106,None,,,,,,,,,,,,314513,001,2025-09-25_17h11.35.257,Priming_gender,,2025.1.1,60.013743112089394,2025-09-25 17h11.38.523931 +0700,
None,None,None,None,women.png,วาสนา,0,0,0,,,,j,1.4759573000483215,None,,,,,0,0,0,32,14.613798299920745,,,,,,,,,,,,,,,,,,14.588181299972348,14.613798299920745,14.613798299920745,14.613798299920745,14.613798299920745,15.061522400006652,15.127602299908176,16.09482279990334,j,1.4759573000483215,None,314513,001,2025-09-25_17h11.35.257,Priming_gender,,2025.1.1,60.013743112089394,2025-09-25 17h11.38.523931 +0700,
กฤษณะ,กาญจนา,men.png,กฤษณะ,men.png,กฤษณะ,1,1,0,,,,k,0.9037379000801593,None,,,,,0,1,1,0,16.12793309998233,,,,,,,,,,,,,,,,,,16.119817500002682,16.12793309998233,16.12793309998233,16.12793309998233,16.12793309998233,16.61102640000172,16.627424599952064,17.04521659994498,k,0.9037379000801593,None,314513,001,2025-09-25_17h11.35.257,Priming_gender,,2025.1.1,60.013743112089394,2025-09-25 17h11.38.523931 +0700,
None,None,None,None,women.png,ชัยวัฒน์,2,2,0,,,,,,,,,,,0,2,2,24,17.075521899969317,,,,,,,,,,,,,,,,,,17.0688459998928,17.075521899969317,17.075521899969317,17.075521899969317,17.075521899969317,17.56131179991644,17.577755799982697,,,,,,,,,,,,,
