Male,Female,Image,Name,ImagePriming,NamePriming,thisN,thisTrialN,thisRepN,key_resp.keys,key_resp.rt,key_resp.duration,training.thisRepN,training.thisTrialN,training.thisN,training.thisIndex,priming.thisRepN,priming.thisTrialN,priming.thisN,priming.thisIndex,thisRow.t,notes,training_Instruction.started,instruction_slide.started,instruction_continue.started,training_Instruction.stopped,instruction_continue.keys,instruction_continue.rt,instruction_continue.duration,training_block.started,MAN.started,WOMAN.started,pic.started,key_resp.started,training_block.stopped,training.key_resp.keys,training.key_resp.rt,training.key_resp.duration,priming_instruction.started,instruction_slide_2.started,instruction_continue_2.started,priming_instruction.stopped,instruction_continue_2.keys,instruction_continue_2.rt,instruction_continue_2.duration,priming_block.started,MAN_3.started,MAN_3_desc.started,WOMAN_3.started,name_2.started,key_resp_3.started,participant,session,date,expName,expVersion,psychopyVersion,frameRate,expStart,
,,,,,,,,,,,,,,,,,,,,,,0.07561930001247674,0.10339820000808686,0.10339820000808686,3.721760999993421,space,3.5009432999650016,None,,,,,,,,,,,,,,,,,,,,,,,347510,001,2025-09-26_05h05.57.533,Priming_gender,,2025.1.1,59.99646016792736,2025-09-26 05h06.01.101892 +0700,
กฤษณะ,กาญจนา,men.png,กฤษณะ,men.png,กฤษณะ,0,0,0,k,1.136561100021936,None,0,0,0,0,,,,,3.770201599923894,,,,,,,,,3.753270099987276,3.770201599923894,3.770201599923894,3.770201599923894,3.770201599923894,4.920442699920386,k,1.136561100021936,None,,,,,,,,,,,,,,347510,001,2025-09-26_05h05.57.533,Priming_gender,,2025.1.1,59.99646016792736,2025-09-26 05h06.01.101892 +0700,
กฤษณะ,กาญจนา,men.png,กฤษณะ,men.png,กฤษณะ,1,1,1,k,0.12574269995093346,None,1,1,1,0,,,,,4.953613399993628,,,,,,,,,4.937427000026219,4.953613399993628,4.953613399993628,4.953613399993628,4.953613399993628,5.087157499976456,k,0.12574269995093346,None,,,,,,,,,,,,,,347510,001,2025-09-26_05h05.57.533,Priming_gender,,2025.1.1,59.99646016792736,2025-09-26 05h06.01.101892 +0700,
กฤษณะ,กาญจนา,men.png,กฤษณะ,men.png,กฤษณะ,2,2,2,k,0.10901559994090348,None,2,2,2,0,,,,,5.120243099983782,,,,,,,,,5.102202399983071,5.120243099983782,5.120243099983782,5.120243099983782,5.120243099983782,5.237427599960938,k,0.10901559994090348,None,,,,,,,,,,,,,,347510,001,2025-09-26_05h05.57.533,Priming_gender,,2025.1.1,59.99646016792736,2025-09-26 05h06.01.101892 +0700,
นเรศ,พิมพ์ใจ,women.png,นเรศ,men.png,นเรศ,3,3,0,k,0.3124076999956742,None,0,3,3,1,,,,,5.26998400001321,,,,,,,,,5.260565900010988,5.26998400001321,5.26998400001321,5.26998400001321,5.26998400001321,5.587011800031178,k,0.3124076999956742,None,,,,,,,,,,,,,,347510,001,2025-09-26_05h05.57.533,Priming_gender,,2025.1.1,59.99646016792736,2025-09-26 05h06.01.101892 +0700,
นเรศ,พิมพ์ใจ,women.png,นเรศ,men.png,นเรศ,4,4,1,j,0.23205120000056922,None,1,4,4,1,,,,,5.6200250999536365,,,,,,,,,5.602638399926946,5.6200250999536365,5.6200250999536365,5.6200250999536365,5.6200250999536365,5.853751900023781,j,0.23205120000056922,None,,,,,,,,,,,,,,347510,001,2025-09-26_05h05.57.533,Priming_gender,,2025.1.1,59.99646016792736,2025-09-26 05h06.01.101892 +0700,
นเรศ,พิมพ์ใจ,women.png,นเรศ,men.png,นเรศ,5,5,2,j,0.11508130002766848,None,2,5,5,1,,,,,5.88674759992864,,,,,,,,,5.8719665999524295,5.88674759992864,5.88674759992864,5.88674759992864,5.88674759992864,6.003725599963218,j,0.11508130002766848,None,,,,,,,,,,,,,,347510,001,2025-09-26_05h05.57.533,Priming_gender,,2025.1.1,59.99646016792736,2025-09-26 05h06.01.101892 +0700,
นเรศ,พิมพ์ใจ,women.png,นเรศ,men.png,นเรศ,6,6,3,k,0.11549009999725968,None,3,6,6,1,,,,,6.036625499953516,,,,,,,,,6.018872799933888,6.036625499953516,6.036625499953516,6.036625499953516,6.036625499953516,6.15348959993571,k,0.11549009999725968,None,,,,,,,,,,,,,,347510,001,2025-09-26_05h05.57.533,Priming_gender,,2025.1.1,59.99646016792736,2025-09-26 05h06.01.101892 +0700,
นเรศ,พิมพ์ใจ,women.png,นเรศ,men.png,นเรศ,7,7,4,j,0.10026980005204678,None,4,7,7,1,,,,,6.186633899924345,,,,,,,,,6.168517799931578,6.186633899924345,6.186633899924345,6.186633899924345,6.186633899924345,6.303515199921094,j,0.10026980005204678,None,,,,,,,,,,,,,,347510,001,2025-09-26_05h05.57.533,Priming_gender,,2025.1.1,59.99646016792736,2025-09-26 05h06.01.101892 +0700,
นเรศ,พิมพ์ใจ,women.png,นเรศ,men.png,นเรศ,8,8,5,k,0.054885299992747605,None,5,8,8,1,,,,,6.337152999942191,,,,,,,,,6.318753400002606,6.337152999942191,6.337152999942191,6.337152999942191,6.337152999942191,6.4035559999756515,k,0.054885299992747605,None,,,,,,,,,,,,,,347510,001,2025-09-26_05h05.57.533,Priming_gender,,2025.1.1,59.99646016792736,2025-09-26 05h06.01.101892 +0700,
กฤษณะ,กาญจนา,men.png,กฤษณะ,men.png,กฤษณะ,9,9,3,j,0.04493999993428588,None,3,9,9,0,,,,,6.436948099988513,,,,,,,,,6.418770699994639,6.436948099988513,6.436948099988513,6.436948099988513,6.436948099988513,6.487121399957687,j,0.04493999993428588,None,,,,,,,,,,,,,,347510,001,2025-09-26_05h05.57.533,Priming_gender,,2025.1.1,59.99646016792736,2025-09-26 05h06.01.101892 +0700,
นเรศ,พิมพ์ใจ,women.png,นเรศ,men.png,นเรศ,10,10,6,k,0.05896939989179373,None,6,10,10,1,,,,,6.520409799995832,,,,,,,,,6.502228899975307,6.520409799995832,6.520409799995832,6.520409799995832,6.520409799995832,6.587083799997345,k,0.05896939989179373,None,,,,,,,,,,,,,,347510,001,2025-09-26_05h05.57.533,Priming_gender,,2025.1.1,59.99646016792736,2025-09-26 05h06.01.101892 +0700,
กฤษณะ,กาญจนา,men.png,กฤษณะ,men.png,กฤษณะ,11,11,4,j,0.0415690999943763,None,4,11,11,0,,,,,6.6203282999340445,,,,,,,,,6.602632399997674,6.6203282999340445,6.6203282999340445,6.6203282999340445,6.6203282999340445,6.670525099965744,j,0.0415690999943763,None,,,,,,,,,,,,,,347510,001,2025-09-26_05h05.57.533,Priming_gender,,2025.1.1,59.99646016792736,2025-09-26 05h06.01.101892 +0700,
กฤษณะ,กาญจนา,men.png,กฤษณะ,men.png,กฤษณะ,12,12,5,k,0.05588820006232709,None,5,12,12,0,,,,,6.703403300023638,,,,,,,,,6.686362899956293,6.703403300023638,6.703403300023638,6.703403300023638,6.703403300023638,6.770634099957533,k,0.05588820006232709,None,,,,,,,,,,,,,,347510,001,2025-09-26_05h05.57.533,Priming_gender,,2025.1.1,59.99646016792736,2025-09-26 05h06.01.101892 +0700,
กฤษณะ,กาญจนา,men.png,กฤษณะ,men.png,กฤษณะ,13,13,6,j,0.01577139995060861,None,6,13,13,0,,,,,6.803417099989019,,,,,,,,,6.787981100031175,6.803417099989019,6.803417099989019,6.803417099989019,6.803417099989019,6.820394999929704,j,0.01577139995060861,None,,,,,,,,,,,,,,347510,001,2025-09-26_05h05.57.533,Priming_gender,,2025.1.1,59.99646016792736,2025-09-26 05h06.01.101892 +0700,
กฤษณะ,กาญจนา,men.png,กฤษณะ,men.png,กฤษณะ,14,14,7,k,0.0779652000637725,None,7,14,14,0,,,,,6.853842300013639,,,,,,,,,6.835736399982125,6.853842300013639,6.853842300013639,6.853842300013639,6.853842300013639,6.937052299967036,k,0.0779652000637725,None,,,,,,,,,,,,,,347510,001,2025-09-26_05h05.57.533,Priming_gender,,2025.1.1,59.99646016792736,2025-09-26 05h06.01.101892 +0700,
กฤษณะ,กาญจนา,men.png,กฤษณะ,men.png,กฤษณะ,15,15,8,k,0.12688280001748353,None,8,15,15,0,,,,,6.970007900032215,,,,,,,,,6.9521441999822855,6.970007900032215,6.970007900032215,6.970007900032215,6.970007900032215,7.10401270003058,k,0.12688280001748353,None,,,,,,,,,,,,,,347510,001,2025-09-26_05h05.57.533,Priming_gender,,2025.1.1,59.99646016792736,2025-09-26 05h06.01.101892 +0700,
นเรศ,พิมพ์ใจ,women.png,นเรศ,men.png,นเรศ,16,16,7,k,0.12519040005281568,None,7,16,16,1,,,,,7.136867700028233,,,,,,,,,7.119120799936354,7.136867700028233,7.136867700028233,7.136867700028233,7.136867700028233,7.270343199954368,k,0.12519040005281568,None,,,,,,,,,,,,,,347510,001,2025-09-26_05h05.57.533,Priming_gender,,2025.1.1,59.99646016792736,2025-09-26 05h06.01.101892 +0700,
นเรศ,พิมพ์ใจ,women.png,นเรศ,men.png,นเรศ,17,17,8,k,0.10111720010172576,None,8,17,17,1,,,,,7.303328500012867,,,,,,,,,7.285548800020479,7.303328500012867,7.303328500012867,7.303328500012867,7.303328500012867,7.420544799999334,k,0.10111720010172576,None,,,,,,,,,,,,,,347510,001,2025-09-26_05h05.57.533,Priming_gender,,2025.1.1,59.99646016792736,2025-09-26 05h06.01.101892 +0700,
นเรศ,พิมพ์ใจ,women.png,นเรศ,men.png,นเรศ,18,18,9,j,0.06348580005578697,None,9,18,18,1,,,,,7.453299699933268,,,,,,,,,7.436161299934611,7.453299699933268,7.453299699933268,7.453299699933268,7.453299699933268,7.520669199991971,j,0.06348580005578697,None,,,,,,,,,,,,,,347510,001,2025-09-26_05h05.57.533,Priming_gender,,2025.1.1,59.99646016792736,2025-09-26 05h06.01.101892 +0700,
นเรศ,พิมพ์ใจ,women.png,นเรศ,men.png,นเรศ,19,19,10,k,0.10571440006606281,None,10,19,19,1,,,,,7.553711100015789,,,,,,,,,7.5354463999392465,7.553711100015789,7.553711100015789,7.553711100015789,7.553711100015789,7.6709284000098705,k,0.10571440006606281,None,,,,,,,,,,,,,,347510,001,2025-09-26_05h05.57.533,Priming_gender,,2025.1.1,59.99646016792736,2025-09-26 05h06.01.101892 +0700,
นเรศ,พิมพ์ใจ,women.png,นเรศ,men.png,นเรศ,20,20,11,k,0.14353119989391416,None,11,20,20,1,,,,,7.70361349999439,,,,,,,,,7.686460900004022,7.70361349999439,7.70361349999439,7.70361349999439,7.70361349999439,7.853595299995504,k,0.14353119989391416,None,,,,,,,,,,,,,,347510,001,2025-09-26_05h05.57.533,Priming_gender,,2025.1.1,59.99646016792736,2025-09-26 05h06.01.101892 +0700,
นเรศ,พิมพ์ใจ,women.png,นเรศ,men.png,นเรศ,21,21,12,j,0.027645000023767352,None,12,21,21,1,,,,,7.886763499933295,,,,,,,,,7.868500699987635,7.886763499933295,7.886763499933295,7.886763499933295,7.886763499933295,7.9205587999895215,j,0.027645000023767352,None,,,,,,,,,,,,,,347510,001,2025-09-26_05h05.57.533,Priming_gender,,2025.1.1,59.99646016792736,2025-09-26 05h06.01.101892 +0700,
นเรศ,พิมพ์ใจ,women.png,นเรศ,men.png,นเรศ,22,22,13,k,0.07350229995790869,None,13,22,22,1,,,,,7.953452899935655,,,,,,,,,7.936332599958405,7.953452899935655,7.953452899935655,7.953452899935655,7.953452899935655,8.037045000004582,k,0.07350229995790869,None,,,,,,,,,,,,,,347510,001,2025-09-26_05h05.57.533,Priming_gender,,2025.1.1,59.99646016792736,2025-09-26 05h06.01.101892 +0700,
กฤษณะ,กาญจนา,men.png,กฤษณะ,men.png,กฤษณะ,23,23,9,k,0.12958089995663613,None,9,23,23,0,,,,,8.069952499936335,,,,,,,,,8.053062799968757,8.069952499936335,8.069952499936335,8.069952499936335,8.069952499936335,8.203598499996588,k,0.12958089995663613,None,,,,,,,,,,,,,,347510,001,2025-09-26_05h05.57.533,Priming_gender,,2025.1.1,59.99646016792736,2025-09-26 05h06.01.101892 +0700,
นเรศ,พิมพ์ใจ,women.png,นเรศ,men.png,นเรศ,24,24,14,j,0.03782409999985248,None,14,24,24,1,,,,,8.236716700019315,,,,,,,,,8.21964999998454,8.236716700019315,8.236716700019315,8.236716700019315,8.236716700019315,8.286913899937645,j,0.03782409999985248,None,,,,,,,,,,,,,,347510,001,2025-09-26_05h05.57.533,Priming_gender,,2025.1.1,59.99646016792736,2025-09-26 05h06.01.101892 +0700,
นเรศ,พิมพ์ใจ,women.png,นเรศ,men.png,นเรศ,25,25,15,k,0.06658270000480115,None,15,25,25,1,,,,,8.320328200003132,,,,,,,,,8.302165700006299,8.320328200003132,8.320328200003132,8.320328200003132,8.320328200003132,8.403817999991588,k,0.06658270000480115,None,,,,,,,,,,,,,,347510,001,2025-09-26_05h05.57.533,Priming_gender,,2025.1.1,59.99646016792736,2025-09-26 05h06.01.101892 +0700,
กฤษณะ,กาญจนา,men.png,กฤษณะ,men.png,กฤษณะ,26,26,10,j,0.02542910003103316,None,10,26,26,0,,,,,8.43660519993864,,,,,,,,,8.418794599943794,8.43660519993864,8.43660519993864,8.43660519993864,8.43660519993864,8.47044259996619,j,0.02542910003103316,None,,,,,,,,,,,,,,347510,001,2025-09-26_05h05.57.533,Priming_gender,,2025.1.1,59.99646016792736,2025-09-26 05h06.01.101892 +0700,
กฤษณะ,กาญจนา,men.png,กฤษณะ,men.png,กฤษณะ,27,27,11,k,0.06374540005344898,None,11,27,27,0,,,,,8.503263399936259,,,,,,,,,8.485435299924575,8.503263399936259,8.503263399936259,8.503263399936259,8.503263399936259,8.570229499950074,k,0.06374540005344898,None,,,,,,,,,,,,,,347510,001,2025-09-26_05h05.57.533,Priming_gender,,2025.1.1,59.99646016792736,2025-09-26 05h06.01.101892 +0700,
กฤษณะ,กาญจนา,men.png,กฤษณะ,men.png,กฤษณะ,28,28,12,j,0.04601659998297691,None,12,28,28,0,,,,,8.603653499973007,,,,,,,,,8.585375500028022,8.603653499973007,8.603653499973007,8.603653499973007,8.603653499973007,8.653684100019746,j,0.04601659998297691,None,,,,,,,,,,,,,,347510,001,2025-09-26_05h05.57.533,Priming_gender,,2025.1.1,59.99646016792736,2025-09-26 05h06.01.101892 +0700,
นเรศ,พิมพ์ใจ,women.png,นเรศ,men.png,นเรศ,29,29,16,k,0.06024889997206628,None,16,29,29,1,,,,,8.686624599969946,,,,,,,,,8.668815699988045,8.686624599969946,8.686624599969946,8.686624599969946,8.686624599969946,8.753541799960658,k,0.06024889997206628,None,,,,,,,,,,,,,,347510,001,2025-09-26_05h05.57.533,Priming_gender,,2025.1.1,59.99646016792736,2025-09-26 05h06.01.101892 +0700,
นเรศ,พิมพ์ใจ,women.png,นเรศ,men.png,นเรศ,30,30,17,j,0.049820999964140356,None,17,30,30,1,,,,,8.786841099965386,,,,,,,,,8.768754399963655,8.786841099965386,8.786841099965386,8.786841099965386,8.786841099965386,8.837075799936429,j,0.049820999964140356,None,,,,,,,,,,,,,,347510,001,2025-09-26_05h05.57.533,Priming_gender,,2025.1.1,59.99646016792736,2025-09-26 05h06.01.101892 +0700,
กฤษณะ,กาญจนา,men.png,กฤษณะ,men.png,กฤษณะ,31,31,13,k,0.056788899935781956,None,13,31,31,0,,,,,8.870182699989527,,,,,,,,,8.852077899966389,8.870182699989527,8.870182699989527,8.870182699989527,8.870182699989527,8.936751800007187,k,0.056788899935781956,None,,,,,,,,,,,,,,347510,001,2025-09-26_05h05.57.533,Priming_gender,,2025.1.1,59.99646016792736,2025-09-26 05h06.01.101892 +0700,
กฤษณะ,กาญจนา,men.png,กฤษณะ,men.png,กฤษณะ,32,32,14,j,0.046920199994929135,None,14,32,32,0,,,,,8.970198199967854,,,,,,,,,8.951602299930528,8.970198199967854,8.970198199967854,8.970198199967854,8.970198199967854,9.021093499963172,j,0.046920199994929135,None,,,,,,,,,,,,,,347510,001,2025-09-26_05h05.57.533,Priming_gender,,2025.1.1,59.99646016792736,2025-09-26 05h06.01.101892 +0700,
กฤษณะ,กาญจนา,men.png,กฤษณะ,men.png,กฤษณะ,33,33,15,k,0.05345569993369281,None,15,33,33,0,,,,,9.053245199960656,,,,,,,,,9.035552499932237,9.053245199960656,9.053245199960656,9.053245199960656,9.053245199960656,9.12048969999887,k,0.05345569993369281,None,,,,,,,,,,,,,,347510,001,2025-09-26_05h05.57.533,Priming_gender,,2025.1.1,59.99646016792736,2025-09-26 05h06.01.101892 +0700,
กฤษณะ,กาญจนา,men.png,กฤษณะ,men.png,กฤษณะ,34,34,16,j,0.04319360002409667,None,16,34,34,0,,,,,9.153608600026928,,,,,,,,,9.13551659998484,9.153608600026928,9.153608600026928,9.153608600026928,9.153608600026928,9.20378179999534,j,0.04319360002409667,None,,,,,,,,,,,,,,347510,001,2025-09-26_05h05.57.533,Priming_gender,,2025.1.1,59.99646016792736,2025-09-26 05h06.01.101892 +0700,
กฤษณะ,กาญจนา,men.png,กฤษณะ,men.png,กฤษณะ,35,35,17,k,0.057475099922157824,None,17,35,35,0,,,,,9.236710999975912,,,,,,,,,9.218968799919821,9.236710999975912,9.236710999975912,9.236710999975912,9.236710999975912,9.303783799987286,k,0.057475099922157824,None,,,,,,,,,,,,,,347510,001,2025-09-26_05h05.57.533,Priming_gender,,2025.1.1,59.99646016792736,2025-09-26 05h06.01.101892 +0700,
กฤษณะ,กาญจนา,men.png,กฤษณะ,men.png,กฤษณะ,36,36,18,k,0.12997039989568293,None,18,36,36,0,,,,,9.336924299946986,,,,,,,,,9.3187339999713,9.336924299946986,9.336924299946986,9.336924299946986,9.336924299946986,9.470348899951205,k,0.12997039989568293,None,,,,,,,,,,,,,,347510,001,2025-09-26_05h05.57.533,Priming_gender,,2025.1.1,59.99646016792736,2025-09-26 05h06.01.101892 +0700,
นเรศ,พิมพ์ใจ,women.png,นเรศ,men.png,นเรศ,37,37,18,k,0.09837330004666,None,18,37,37,1,,,,,9.503598499926738,,,,,,,,,9.485525700030848,9.503598499926738,9.503598499926738,9.503598499926738,9.503598499926738,9.603682199958712,k,0.09837330004666,None,,,,,,,,,,,,,,347510,001,2025-09-26_05h05.57.533,Priming_gender,,2025.1.1,59.99646016792736,2025-09-26 05h06.01.101892 +0700,
กฤษณะ,กาญจนา,men.png,กฤษณะ,men.png,กฤษณะ,38,38,19,k,0.10755149996839464,None,19,38,38,0,,,,,9.636844799970277,,,,,,,,,9.619901499943808,9.636844799970277,9.636844799970277,9.636844799970277,9.636844799970277,9.7536513999803,k,0.10755149996839464,None,,,,,,,,,,,,,,347510,001,2025-09-26_05h05.57.533,Priming_gender,,2025.1.1,59.99646016792736,2025-09-26 05h06.01.101892 +0700,
นเรศ,พิมพ์ใจ,women.png,นเรศ,men.png,นเรศ,39,39,19,j,0.09273519995622337,None,19,39,39,1,,,,,9.78676159994211,,,,,,,,,9.768804099992849,9.78676159994211,9.78676159994211,9.78676159994211,9.78676159994211,9.887593499966897,j,0.09273519995622337,None,,,,,,,,,,,,,,347510,001,2025-09-26_05h05.57.533,Priming_gender,,2025.1.1,59.99646016792736,2025-09-26 05h06.01.101892 +0700,
,,,,,,,,,,,,,,,,,,,,,,,,,,,,,,,,,,,,,,9.887672399985604,9.90348510001786,9.90348510001786,11.253383200033568,space,1.3483700000215322,None,,,,,,,347510,001,2025-09-26_05h05.57.533,Priming_gender,,2025.1.1,59.99646016792736,2025-09-26 05h06.01.101892 +0700,
None,None,None,วาสนา,men.png,วาสนา,0,0,0,,,,,,,,0,0,0,12,,,,,,,,,,,,,,,,,,,,,,,,,,11.281667799921706,,,,,,,,,,,,,,
