Male,Female,Image,Name,ImagePriming,NamePriming,thisN,thisTrialN,thisRepN,key_resp.keys,key_resp.rt,key_resp.duration,training.thisRepN,training.thisTrialN,training.thisN,training.thisIndex,thisRow.t,notes,training_block.started,MAN.started,WOMAN.started,pic.started,key_resp.started,training_block.stopped,training.key_resp.keys,training.key_resp.rt,training.key_resp.duration,participant,session,date,expName,expVersion,psychopyVersion,frameRate,expStart,
นเรศ,พิมพ์ใจ,women.png,นเรศ,men.png,นเรศ,0,0,0,k,1.1183942999923602,None,0,0,0,1,0.03607150004245341,,0.02952420001383871,0.03607150004245341,0.03607150004245341,0.03607150004245341,0.03607150004245341,1.1596334000350907,k,1.1183942999923602,None,465780,001,2025-09-25_16h45.59.139,Priming_gender,,2025.1.1,59.82707582661051,2025-09-25 16h46.02.227585 +0700,
กฤษณะ,กาญจนา,men.png,กฤษณะ,men.png,กฤษณะ,1,1,0,j,0.4374174999538809,None,0,1,1,0,1.1845260000554845,,1.17806509998627,1.1845260000554845,1.1845260000554845,1.1845260000554845,1.1845260000554845,1.625148499966599,j,0.4374174999538809,None,465780,001,2025-09-25_16h45.59.139,Priming_gender,,2025.1.1,59.82707582661051,2025-09-25 16h46.02.227585 +0700,
นเรศ,พิมพ์ใจ,women.png,นเรศ,men.png,นเรศ,2,2,1,j,0.18157519993837923,None,1,2,2,1,1.6484114000340924,,1.6424780000234023,1.6484114000340924,1.6484114000340924,1.6484114000340924,1.6484114000340924,1.841787499957718,j,0.18157519993837923,None,465780,001,2025-09-25_16h45.59.139,Priming_gender,,2025.1.1,59.82707582661051,2025-09-25 16h46.02.227585 +0700,
กฤษณะ,กาญจนา,men.png,กฤษณะ,men.png,กฤษณะ,3,3,1,j,0.1534598000580445,None,1,3,3,0,1.8670345999998972,,1.8613192000193521,1.8670345999998972,1.8670345999998972,1.8670345999998972,1.8670345999998972,2.0246709999628365,j,0.1534598000580445,None,465780,001,2025-09-25_16h45.59.139,Priming_gender,,2025.1.1,59.82707582661051,2025-09-25 16h46.02.227585 +0700,
กฤษณะ,กาญจนา,men.png,กฤษณะ,men.png,กฤษณะ,4,4,2,j,0.16918959992472082,None,2,4,4,0,2.0499900999711826,,2.0436868000542745,2.0499900999711826,2.0499900999711826,2.0499900999711826,2.0499900999711826,2.22454760002438,j,0.16918959992472082,None,465780,001,2025-09-25_16h45.59.139,Priming_gender,,2025.1.1,59.82707582661051,2025-09-25 16h46.02.227585 +0700,
นเรศ,พิมพ์ใจ,women.png,นเรศ,men.png,นเรศ,5,5,2,j,0.2655448999721557,None,2,5,5,1,2.250047600013204,,2.2435061000287533,2.250047600013204,2.250047600013204,2.250047600013204,2.250047600013204,2.5251810000045225,j,0.2655448999721557,None,465780,001,2025-09-25_16h45.59.139,Priming_gender,,2025.1.1,59.82707582661051,2025-09-25 16h46.02.227585 +0700,
นเรศ,พิมพ์ใจ,women.png,นเรศ,men.png,นเรศ,6,6,3,j,0.17635309998877347,None,3,6,6,1,2.5503185000270605,,2.544163699960336,2.5503185000270605,2.5503185000270605,2.5503185000270605,2.5503185000270605,2.7419038000516593,j,0.17635309998877347,None,465780,001,2025-09-25_16h45.59.139,Priming_gender,,2025.1.1,59.82707582661051,2025-09-25 16h46.02.227585 +0700,
กฤษณะ,กาญจนา,men.png,กฤษณะ,men.png,กฤษณะ,7,7,3,j,0.22545540006831288,None,3,7,7,0,2.7666230000322685,,2.7603732000570744,2.7666230000322685,2.7666230000322685,2.7666230000322685,2.7666230000322685,3.008572999970056,j,0.22545540006831288,None,465780,001,2025-09-25_16h45.59.139,Priming_gender,,2025.1.1,59.82707582661051,2025-09-25 16h46.02.227585 +0700,
นเรศ,พิมพ์ใจ,women.png,นเรศ,men.png,นเรศ,8,8,4,j,0.18990220001433045,None,4,8,8,1,3.0334509999956936,,3.0279424999607727,3.0334509999956936,3.0334509999956936,3.0334509999956936,3.0334509999956936,3.2244366999948397,j,0.18990220001433045,None,465780,001,2025-09-25_16h45.59.139,Priming_gender,,2025.1.1,59.82707582661051,2025-09-25 16h46.02.227585 +0700,
นเรศ,พิมพ์ใจ,women.png,นเรศ,men.png,นเรศ,9,9,5,k,0.18641770002432168,None,5,9,9,1,3.249028700054623,,3.2432281000074,3.249028700054623,3.249028700054623,3.249028700054623,3.249028700054623,3.440547800040804,k,0.18641770002432168,None,465780,001,2025-09-25_16h45.59.139,Priming_gender,,2025.1.1,59.82707582661051,2025-09-25 16h46.02.227585 +0700,
กฤษณะ,กาญจนา,men.png,กฤษณะ,men.png,กฤษณะ,10,10,4,k,0.1605883000884205,None,4,10,10,0,3.4652564000571147,,3.4589404000435024,3.4652564000571147,3.4652564000571147,3.4652564000571147,3.4652564000571147,3.641759100020863,k,0.1605883000884205,None,465780,001,2025-09-25_16h45.59.139,Priming_gender,,2025.1.1,59.82707582661051,2025-09-25 16h46.02.227585 +0700,
กฤษณะ,กาญจนา,men.png,กฤษณะ,men.png,กฤษณะ,11,11,5,k,0.09984189993701875,None,5,11,11,0,3.6676960999611765,,3.6608765999553725,3.6676960999611765,3.6676960999611765,3.6676960999611765,3.6676960999611765,3.774446600000374,k,0.09984189993701875,None,465780,001,2025-09-25_16h45.59.139,Priming_gender,,2025.1.1,59.82707582661051,2025-09-25 16h46.02.227585 +0700,
นเรศ,พิมพ์ใจ,women.png,นเรศ,men.png,นเรศ,12,12,6,k,0.13589829998090863,None,6,12,12,1,3.7986254000570625,,3.7931218000594527,3.7986254000570625,3.7986254000570625,3.7986254000570625,3.7986254000570625,3.940479399985634,k,0.13589829998090863,None,465780,001,2025-09-25_16h45.59.139,Priming_gender,,2025.1.1,59.82707582661051,2025-09-25 16h46.02.227585 +0700,
นเรศ,พิมพ์ใจ,women.png,นเรศ,men.png,นเรศ,13,13,7,k,0.12555060000158846,None,7,13,13,1,3.963822599966079,,3.9590012000408024,3.963822599966079,3.963822599966079,3.963822599966079,3.963822599966079,4.090617300011218,k,0.12555060000158846,None,465780,001,2025-09-25_16h45.59.139,Priming_gender,,2025.1.1,59.82707582661051,2025-09-25 16h46.02.227585 +0700,
กฤษณะ,กาญจนา,men.png,กฤษณะ,men.png,กฤษณะ,14,14,6,j,0.24812619993463159,None,6,14,14,0,4.1141196000389755,,4.10933390003629,4.1141196000389755,4.1141196000389755,4.1141196000389755,4.1141196000389755,4.374521099962294,j,0.24812619993463159,None,465780,001,2025-09-25_16h45.59.139,Priming_gender,,2025.1.1,59.82707582661051,2025-09-25 16h46.02.227585 +0700,
นเรศ,พิมพ์ใจ,women.png,นเรศ,men.png,นเรศ,15,15,8,k,0.30710169998928905,None,8,15,15,1,4.398684100015089,,4.393343499978073,4.398684100015089,4.398684100015089,4.398684100015089,4.398684100015089,4.707087100017816,k,0.30710169998928905,None,465780,001,2025-09-25_16h45.59.139,Priming_gender,,2025.1.1,59.82707582661051,2025-09-25 16h46.02.227585 +0700,
กฤษณะ,กาญจนา,men.png,กฤษณะ,men.png,กฤษณะ,16,16,7,k,0.2165847000433132,None,7,16,16,0,4.731372499954887,,4.72582179994788,4.731372499954887,4.731372499954887,4.731372499954887,4.731372499954887,4.956986399949528,k,0.2165847000433132,None,465780,001,2025-09-25_16h45.59.139,Priming_gender,,2025.1.1,59.82707582661051,2025-09-25 16h46.02.227585 +0700,
นเรศ,พิมพ์ใจ,women.png,นเรศ,men.png,นเรศ,17,17,9,k,0.16706110001541674,None,9,17,17,1,4.9807809999911115,,4.975823899963871,4.9807809999911115,4.9807809999911115,4.9807809999911115,4.9807809999911115,5.157242399989627,k,0.16706110001541674,None,465780,001,2025-09-25_16h45.59.139,Priming_gender,,2025.1.1,59.82707582661051,2025-09-25 16h46.02.227585 +0700,
กฤษณะ,กาญจนา,men.png,กฤษณะ,men.png,กฤษณะ,18,18,8,k,0.10030839999672025,None,8,18,18,0,5.182121700025164,,5.177079700049944,5.182121700025164,5.182121700025164,5.182121700025164,5.182121700025164,5.2908979000058025,k,0.10030839999672025,None,465780,001,2025-09-25_16h45.59.139,Priming_gender,,2025.1.1,59.82707582661051,2025-09-25 16h46.02.227585 +0700,
กฤษณะ,กาญจนา,men.png,กฤษณะ,men.png,กฤษณะ,19,19,9,k,0.1360528999939561,None,9,19,19,0,5.316323800012469,,5.311419700039551,5.316323800012469,5.316323800012469,5.316323800012469,5.316323800012469,5.457059900043532,k,0.1360528999939561,None,465780,001,2025-09-25_16h45.59.139,Priming_gender,,2025.1.1,59.82707582661051,2025-09-25 16h46.02.227585 +0700,
กฤษณะ,กาญจนา,men.png,กฤษณะ,men.png,กฤษณะ,20,20,10,j,0.18244360003154725,None,10,20,20,0,5.481201100046746,,5.47624500002712,5.481201100046746,5.481201100046746,5.481201100046746,5.481201100046746,5.674357400042936,j,0.18244360003154725,None,465780,001,2025-09-25_16h45.59.139,Priming_gender,,2025.1.1,59.82707582661051,2025-09-25 16h46.02.227585 +0700,
กฤษณะ,กาญจนา,men.png,กฤษณะ,men.png,กฤษณะ,21,21,11,k,0.7642624999862164,None,11,21,21,0,5.699093300034292,,5.693865200038999,5.699093300034292,5.699093300034292,5.699093300034292,5.699093300034292,6.474009500001557,k,0.7642624999862164,None,465780,001,2025-09-25_16h45.59.139,Priming_gender,,2025.1.1,59.82707582661051,2025-09-25 16h46.02.227585 +0700,
กฤษณะ,กาญจนา,men.png,กฤษณะ,men.png,กฤษณะ,22,22,12,k,0.4899457999272272,None,12,22,22,0,6.500787500059232,,6.496065199957229,6.500787500059232,6.500787500059232,6.500787500059232,6.500787500059232,7.006992100039497,k,0.4899457999272272,None,465780,001,2025-09-25_16h45.59.139,Priming_gender,,2025.1.1,59.82707582661051,2025-09-25 16h46.02.227585 +0700,
นเรศ,พิมพ์ใจ,women.png,นเรศ,men.png,นเรศ,23,23,10,k,0.18768810003530234,None,10,23,23,1,7.028920899960212,,7.024159700027667,7.028920899960212,7.028920899960212,7.028920899960212,7.028920899960212,7.2238054999616,k,0.18768810003530234,None,465780,001,2025-09-25_16h45.59.139,Priming_gender,,2025.1.1,59.82707582661051,2025-09-25 16h46.02.227585 +0700,
กฤษณะ,กาญจนา,men.png,กฤษณะ,men.png,กฤษณะ,24,24,13,k,0.1445077999960631,None,13,24,24,0,7.248354300041683,,7.243263700045645,7.248354300041683,7.248354300041683,7.248354300041683,7.248354300041683,7.4069016999565065,k,0.1445077999960631,None,465780,001,2025-09-25_16h45.59.139,Priming_gender,,2025.1.1,59.82707582661051,2025-09-25 16h46.02.227585 +0700,
นเรศ,พิมพ์ใจ,women.png,นเรศ,men.png,นเรศ,25,25,11,k,0.1253224000101909,None,11,25,25,1,7.430606900015846,,7.425816599978134,7.430606900015846,7.430606900015846,7.430606900015846,7.430606900015846,7.557635399978608,k,0.1253224000101909,None,465780,001,2025-09-25_16h45.59.139,Priming_gender,,2025.1.1,59.82707582661051,2025-09-25 16h46.02.227585 +0700,
กฤษณะ,กาญจนา,men.png,กฤษณะ,men.png,กฤษณะ,26,26,14,j,0.16056510002817959,None,14,26,26,0,7.580853900057264,,7.57610599999316,7.580853900057264,7.580853900057264,7.580853900057264,7.580853900057264,7.757482600049116,j,0.16056510002817959,None,465780,001,2025-09-25_16h45.59.139,Priming_gender,,2025.1.1,59.82707582661051,2025-09-25 16h46.02.227585 +0700,
นเรศ,พิมพ์ใจ,women.png,นเรศ,men.png,นเรศ,27,27,12,k,0.17982009996194392,None,12,27,27,1,7.781962199951522,,7.7772448000032455,7.781962199951522,7.781962199951522,7.781962199951522,7.781962199951522,7.974267599987797,k,0.17982009996194392,None,465780,001,2025-09-25_16h45.59.139,Priming_gender,,2025.1.1,59.82707582661051,2025-09-25 16h46.02.227585 +0700,
นเรศ,พิมพ์ใจ,women.png,นเรศ,men.png,นเรศ,28,28,13,j,0.12314190005417913,None,13,28,28,1,7.998381900019012,,7.993178399978206,7.998381900019012,7.998381900019012,7.998381900019012,7.998381900019012,8.123975199996494,j,0.12314190005417913,None,465780,001,2025-09-25_16h45.59.139,Priming_gender,,2025.1.1,59.82707582661051,2025-09-25 16h46.02.227585 +0700,
นเรศ,พิมพ์ใจ,women.png,นเรศ,men.png,นเรศ,29,29,14,k,0.16742720000911504,None,14,29,29,1,8.148219499969855,,8.143380300025456,8.148219499969855,8.148219499969855,8.148219499969855,8.148219499969855,8.323928100056946,k,0.16742720000911504,None,465780,001,2025-09-25_16h45.59.139,Priming_gender,,2025.1.1,59.82707582661051,2025-09-25 16h46.02.227585 +0700,
นเรศ,พิมพ์ใจ,women.png,นเรศ,men.png,นเรศ,30,30,15,j,0.08179009996820241,None,15,30,30,1,8.347911400021985,,8.342072400031611,8.347911400021985,8.347911400021985,8.347911400021985,8.347911400021985,8.441136699984781,j,0.08179009996820241,None,465780,001,2025-09-25_16h45.59.139,Priming_gender,,2025.1.1,59.82707582661051,2025-09-25 16h46.02.227585 +0700,
กฤษณะ,กาญจนา,men.png,กฤษณะ,men.png,กฤษณะ,31,31,15,k,0.09870450000744313,None,15,31,31,0,8.464491700055078,,8.459681399981491,8.464491700055078,8.464491700055078,8.464491700055078,8.464491700055078,8.573665900039487,k,0.09870450000744313,None,465780,001,2025-09-25_16h45.59.139,Priming_gender,,2025.1.1,59.82707582661051,2025-09-25 16h46.02.227585 +0700,
กฤษณะ,กาญจนา,men.png,กฤษณะ,men.png,กฤษณะ,32,32,16,j,0.04848860006313771,None,16,32,32,0,8.597318700049073,,8.592484300024807,8.597318700049073,8.597318700049073,8.597318700049073,8.597318700049073,8.657406899961643,j,0.04848860006313771,None,465780,001,2025-09-25_16h45.59.139,Priming_gender,,2025.1.1,59.82707582661051,2025-09-25 16h46.02.227585 +0700,
นเรศ,พิมพ์ใจ,women.png,นเรศ,men.png,นเรศ,33,33,16,k,0.08745140000246465,None,16,33,33,1,8.680183500051498,,8.675251699984074,8.680183500051498,8.680183500051498,8.680183500051498,8.680183500051498,8.77394430001732,k,0.08745140000246465,None,465780,001,2025-09-25_16h45.59.139,Priming_gender,,2025.1.1,59.82707582661051,2025-09-25 16h46.02.227585 +0700,
นเรศ,พิมพ์ใจ,women.png,นเรศ,men.png,นเรศ,34,34,17,j,0.04483300005085766,None,17,34,34,1,8.797120000002906,,8.79225379996933,8.797120000002906,8.797120000002906,8.797120000002906,8.797120000002906,8.857492199982516,j,0.04483300005085766,None,465780,001,2025-09-25_16h45.59.139,Priming_gender,,2025.1.1,59.82707582661051,2025-09-25 16h46.02.227585 +0700,
กฤษณะ,กาญจนา,men.png,กฤษณะ,men.png,กฤษณะ,35,35,17,k,0.0714563000947237,None,17,35,35,0,8.878572899964638,,8.873864999972284,8.878572899964638,8.878572899964638,8.878572899964638,8.878572899964638,8.95665209996514,k,0.0714563000947237,None,465780,001,2025-09-25_16h45.59.139,Priming_gender,,2025.1.1,59.82707582661051,2025-09-25 16h46.02.227585 +0700,
กฤษณะ,กาญจนา,men.png,กฤษณะ,men.png,กฤษณะ,36,36,18,j,0.037833399954251945,None,18,36,36,0,8.980622599949129,,8.975394999957643,8.980622599949129,8.980622599949129,8.980622599949129,8.980622599949129,9.023999899975024,j,0.037833399954251945,None,465780,001,2025-09-25_16h45.59.139,Priming_gender,,2025.1.1,59.82707582661051,2025-09-25 16h46.02.227585 +0700,
นเรศ,พิมพ์ใจ,women.png,นเรศ,men.png,นเรศ,37,37,18,,,,18,37,37,1,9.04564579995349,,9.04056880006101,9.04564579995349,9.04564579995349,9.04564579995349,9.04564579995349,,,,,,,,,,,,,
