Male,Female,Image,Name,ImagePriming,NamePriming,ImageTrig,NameTrig,Trig,thisN,thisTrialN,thisRepN,key_resp.keys,key_resp.rt,key_resp.duration,key_resp_3.keys,key_resp_3.rt,key_resp_3.duration,training.thisRepN,training.thisTrialN,training.thisN,training.thisIndex,priming.thisRepN,priming.thisTrialN,priming.thisN,priming.thisIndex,thisRow.t,notes,training_Instruction.started,instruction_slide.started,instruction_continue.started,training_Instruction.stopped,instruction_continue.keys,instruction_continue.rt,instruction_continue.duration,training_block.started,MAN.started,WOMAN.started,pic.started,key_resp.started,training_block.stopped,training.key_resp.keys,training.key_resp.rt,training.key_resp.duration,priming_instruction.started,instruction_slide_2.started,instruction_continue_2.started,priming_instruction.stopped,instruction_continue_2.keys,instruction_continue_2.rt,instruction_continue_2.duration,priming_block.started,MAN_3.started,MAN_3_desc.started,WOMAN_3.started,name_2.started,key_resp_3.started,pic_2.started,name_2.stopped,priming_block.stopped,priming.key_resp_3.keys,priming.key_resp_3.rt,priming.key_resp_3.duration,participant,session,date,expName,expVersion,psychopyVersion,frameRate,expStart,
,,,,,,,,,,,,,,,,,,,,,,,,,,,,0.09648579999338835,0.11737440002616495,0.11737440002616495,0.7034621000057086,space,0.5674679999938235,None,,,,,,,,,,,,,,,,,,,,,,,,,,,,,585513,001,2025-09-26_05h56.28.333,Priming_gender,,2025.1.1,59.44921494115152,2025-09-26 05h56.31.512684 +0700,
นเรศ,พิมพ์ใจ,women.png,นเรศ,men.png,นเรศ,10,51,101,0,0,0,j,0.9157871000934392,None,,,,0,0,0,1,,,,,0.7339845000533387,,,,,,,,,0.7268934999592602,0.7339845000533387,0.7339845000533387,0.7339845000533387,0.7339845000533387,1.65107529994566,j,0.9157871000934392,None,,,,,,,,,,,,,,,,,,,,585513,001,2025-09-26_05h56.28.333,Priming_gender,,2025.1.1,59.44921494115152,2025-09-26 05h56.31.512684 +0700,
นเรศ,พิมพ์ใจ,women.png,นเรศ,men.png,นเรศ,10,51,101,1,1,1,k,0.07036710006650537,None,,,,1,1,1,1,,,,,1.684093900024891,,,,,,,,,1.6642625000094995,1.684093900024891,1.684093900024891,1.684093900024891,1.684093900024891,1.7675062000053003,k,0.07036710006650537,None,,,,,,,,,,,,,,,,,,,,585513,001,2025-09-26_05h56.28.333,Priming_gender,,2025.1.1,59.44921494115152,2025-09-26 05h56.31.512684 +0700,
นเรศ,พิมพ์ใจ,women.png,นเรศ,men.png,นเรศ,10,51,101,2,2,2,j,0.04403739992994815,None,,,,2,2,2,1,,,,,1.8005647000391036,,,,,,,,,1.7807904999936,1.8005647000391036,1.8005647000391036,1.8005647000391036,1.8005647000391036,1.8511074000271037,j,0.04403739992994815,None,,,,,,,,,,,,,,,,,,,,585513,001,2025-09-26_05h56.28.333,Priming_gender,,2025.1.1,59.44921494115152,2025-09-26 05h56.31.512684 +0700,
กฤษณะ,กาญจนา,men.png,กฤษณะ,men.png,กฤษณะ,10,50,100,3,3,0,k,0.05058799998369068,None,,,,0,3,3,0,,,,,1.8841586000053212,,,,,,,,,1.8640575000317767,1.8841586000053212,1.8841586000053212,1.8841586000053212,1.8841586000053212,1.9511304999468848,k,0.05058799998369068,None,,,,,,,,,,,,,,,,,,,,585513,001,2025-09-26_05h56.28.333,Priming_gender,,2025.1.1,59.44921494115152,2025-09-26 05h56.31.512684 +0700,
กฤษณะ,กาญจนา,men.png,กฤษณะ,men.png,กฤษณะ,10,50,100,4,4,1,j,0.018087100004777312,None,,,,1,4,4,0,,,,,1.9841685000574216,,,,,,,,,1.9650596999563277,1.9841685000574216,1.9841685000574216,1.9841685000574216,1.9841685000574216,2.0195803999667987,j,0.018087100004777312,None,,,,,,,,,,,,,,,,,,,,585513,001,2025-09-26_05h56.28.333,Priming_gender,,2025.1.1,59.44921494115152,2025-09-26 05h56.31.512684 +0700,
กฤษณะ,กาญจนา,men.png,กฤษณะ,men.png,กฤษณะ,10,50,100,5,5,2,k,0.04888100002426654,None,,,,2,5,5,0,,,,,2.050801399978809,,,,,,,,,2.0334566000383347,2.050801399978809,2.050801399978809,2.050801399978809,2.050801399978809,2.100842699990608,k,0.04888100002426654,None,,,,,,,,,,,,,,,,,,,,585513,001,2025-09-26_05h56.28.333,Priming_gender,,2025.1.1,59.44921494115152,2025-09-26 05h56.31.512684 +0700,
กฤษณะ,กาญจนา,men.png,กฤษณะ,men.png,กฤษณะ,10,50,100,6,6,3,j,0.01835120003670454,None,,,,3,6,6,0,,,,,2.1339544999646023,,,,,,,,,2.114564000046812,2.1339544999646023,2.1339544999646023,2.1339544999646023,2.1339544999646023,2.167521100025624,j,0.01835120003670454,None,,,,,,,,,,,,,,,,,,,,585513,001,2025-09-26_05h56.28.333,Priming_gender,,2025.1.1,59.44921494115152,2025-09-26 05h56.31.512684 +0700,
กฤษณะ,กาญจนา,men.png,กฤษณะ,men.png,กฤษณะ,10,50,100,7,7,4,k,0.056590699939988554,None,,,,4,7,7,0,,,,,2.20062090002466,,,,,,,,,2.1805698999669403,2.20062090002466,2.20062090002466,2.20062090002466,2.20062090002466,2.2675382000161335,k,0.056590699939988554,None,,,,,,,,,,,,,,,,,,,,585513,001,2025-09-26_05h56.28.333,Priming_gender,,2025.1.1,59.44921494115152,2025-09-26 05h56.31.512684 +0700,
กฤษณะ,กาญจนา,men.png,กฤษณะ,men.png,กฤษณะ,10,50,100,8,8,5,j,0.016601799987256527,None,,,,5,8,8,0,,,,,2.300576000008732,,,,,,,,,2.281216899980791,2.300576000008732,2.300576000008732,2.300576000008732,2.300576000008732,2.318974700057879,j,0.016601799987256527,None,,,,,,,,,,,,,,,,,,,,585513,001,2025-09-26_05h56.28.333,Priming_gender,,2025.1.1,59.44921494115152,2025-09-26 05h56.31.512684 +0700,
กฤษณะ,กาญจนา,men.png,กฤษณะ,men.png,กฤษณะ,10,50,100,9,9,6,k,0.06417689996305853,None,,,,6,9,9,0,,,,,2.350775899947621,,,,,,,,,2.331892400048673,2.350775899947621,2.350775899947621,2.350775899947621,2.350775899947621,2.4190143999876454,k,0.06417689996305853,None,,,,,,,,,,,,,,,,,,,,585513,001,2025-09-26_05h56.28.333,Priming_gender,,2025.1.1,59.44921494115152,2025-09-26 05h56.31.512684 +0700,
นเรศ,พิมพ์ใจ,women.png,นเรศ,men.png,นเรศ,10,51,101,10,10,3,j,0.023955399985425174,None,,,,3,10,10,1,,,,,2.4506861000554636,,,,,,,,,2.4327743999892846,2.4506861000554636,2.4506861000554636,2.4506861000554636,2.4506861000554636,2.484347300021909,j,0.023955399985425174,None,,,,,,,,,,,,,,,,,,,,585513,001,2025-09-26_05h56.28.333,Priming_gender,,2025.1.1,59.44921494115152,2025-09-26 05h56.31.512684 +0700,
นเรศ,พิมพ์ใจ,women.png,นเรศ,men.png,นเรศ,10,51,101,11,11,4,k,0.06191769998986274,None,,,,4,11,11,1,,,,,2.5176435000030324,,,,,,,,,2.497419200022705,2.5176435000030324,2.5176435000030324,2.5176435000030324,2.5176435000030324,2.584378600004129,k,0.06191769998986274,None,,,,,,,,,,,,,,,,,,,,585513,001,2025-09-26_05h56.28.333,Priming_gender,,2025.1.1,59.44921494115152,2025-09-26 05h56.31.512684 +0700,
กฤษณะ,กาญจนา,men.png,กฤษณะ,men.png,กฤษณะ,10,50,100,12,12,7,j,0.02900949993636459,None,,,,7,12,12,0,,,,,2.618273100000806,,,,,,,,,2.597821500035934,2.618273100000806,2.618273100000806,2.618273100000806,2.618273100000806,2.651361500029452,j,0.02900949993636459,None,,,,,,,,,,,,,,,,,,,,585513,001,2025-09-26_05h56.28.333,Priming_gender,,2025.1.1,59.44921494115152,2025-09-26 05h56.31.512684 +0700,
กฤษณะ,กาญจนา,men.png,กฤษณะ,men.png,กฤษณะ,10,50,100,13,13,8,k,0.06798149994574487,None,,,,8,13,13,0,,,,,2.6841955999843776,,,,,,,,,2.6649263000581414,2.6841955999843776,2.6841955999843776,2.6841955999843776,2.6841955999843776,2.7676760000176728,k,0.06798149994574487,None,,,,,,,,,,,,,,,,,,,,585513,001,2025-09-26_05h56.28.333,Priming_gender,,2025.1.1,59.44921494115152,2025-09-26 05h56.31.512684 +0700,
กฤษณะ,กาญจนา,men.png,กฤษณะ,men.png,กฤษณะ,10,50,100,14,14,9,j,0.019256100058555603,None,,,,9,14,14,0,,,,,2.800592500017956,,,,,,,,,2.7811554999789223,2.800592500017956,2.800592500017956,2.800592500017956,2.800592500017956,2.8342395999934524,j,0.019256100058555603,None,,,,,,,,,,,,,,,,,,,,585513,001,2025-09-26_05h56.28.333,Priming_gender,,2025.1.1,59.44921494115152,2025-09-26 05h56.31.512684 +0700,
กฤษณะ,กาญจนา,men.png,กฤษณะ,men.png,กฤษณะ,10,50,100,15,15,10,k,0.04979219997767359,None,,,,10,15,15,0,,,,,2.867302200058475,,,,,,,,,2.8486647000536323,2.867302200058475,2.867302200058475,2.867302200058475,2.867302200058475,2.9178584000328556,k,0.04979219997767359,None,,,,,,,,,,,,,,,,,,,,585513,001,2025-09-26_05h56.28.333,Priming_gender,,2025.1.1,59.44921494115152,2025-09-26 05h56.31.512684 +0700,
กฤษณะ,กาญจนา,men.png,กฤษณะ,men.png,กฤษณะ,10,50,100,16,16,11,j,0.041358300019055605,None,,,,11,16,16,0,,,,,2.9508683000458404,,,,,,,,,2.9307058999547735,2.9508683000458404,2.9508683000458404,2.9508683000458404,2.9508683000458404,3.000884799985215,j,0.041358300019055605,None,,,,,,,,,,,,,,,,,,,,585513,001,2025-09-26_05h56.28.333,Priming_gender,,2025.1.1,59.44921494115152,2025-09-26 05h56.31.512684 +0700,
กฤษณะ,กาญจนา,men.png,กฤษณะ,men.png,กฤษณะ,10,50,100,17,17,12,k,0.06331800005864352,None,,,,12,17,17,0,,,,,3.0339663999620825,,,,,,,,,3.0146233000559732,3.0339663999620825,3.0339663999620825,3.0339663999620825,3.0339663999620825,3.1008486000355333,k,0.06331800005864352,None,,,,,,,,,,,,,,,,,,,,585513,001,2025-09-26_05h56.28.333,Priming_gender,,2025.1.1,59.44921494115152,2025-09-26 05h56.31.512684 +0700,
นเรศ,พิมพ์ใจ,women.png,นเรศ,men.png,นเรศ,10,51,101,18,18,5,j,0.023618899984285235,None,,,,5,18,18,1,,,,,3.1339634000323713,,,,,,,,,3.114390700007789,3.1339634000323713,3.1339634000323713,3.1339634000323713,3.1339634000323713,3.1677491000154987,j,0.023618899984285235,None,,,,,,,,,,,,,,,,,,,,585513,001,2025-09-26_05h56.28.333,Priming_gender,,2025.1.1,59.44921494115152,2025-09-26 05h56.31.512684 +0700,
นเรศ,พิมพ์ใจ,women.png,นเรศ,men.png,นเรศ,10,51,101,19,19,6,k,0.07624460000079125,None,,,,6,19,19,1,,,,,3.200621100026183,,,,,,,,,3.180949699948542,3.200621100026183,3.200621100026183,3.200621100026183,3.200621100026183,3.2852037999546155,k,0.07624460000079125,None,,,,,,,,,,,,,,,,,,,,585513,001,2025-09-26_05h56.28.333,Priming_gender,,2025.1.1,59.44921494115152,2025-09-26 05h56.31.512684 +0700,
นเรศ,พิมพ์ใจ,women.png,นเรศ,men.png,นเรศ,10,51,101,20,20,7,j,0.04124459996819496,None,,,,7,20,20,1,,,,,3.3187447000527754,,,,,,,,,3.2985139000229537,3.3187447000527754,3.3187447000527754,3.3187447000527754,3.3187447000527754,3.3677305000601336,j,0.04124459996819496,None,,,,,,,,,,,,,,,,,,,,585513,001,2025-09-26_05h56.28.333,Priming_gender,,2025.1.1,59.44921494115152,2025-09-26 05h56.31.512684 +0700,
นเรศ,พิมพ์ใจ,women.png,นเรศ,men.png,นเรศ,10,51,101,21,21,8,j,0.10149379994254559,None,,,,8,21,21,1,,,,,3.4006033999612555,,,,,,,,,3.380740800057538,3.4006033999612555,3.4006033999612555,3.4006033999612555,3.4006033999612555,3.517823899979703,j,0.10149379994254559,None,,,,,,,,,,,,,,,,,,,,585513,001,2025-09-26_05h56.28.333,Priming_gender,,2025.1.1,59.44921494115152,2025-09-26 05h56.31.512684 +0700,
นเรศ,พิมพ์ใจ,women.png,นเรศ,men.png,นเรศ,10,51,101,22,22,9,j,0.07860229990910739,None,,,,9,22,22,1,,,,,3.550848599988967,,,,,,,,,3.5310000999597833,3.550848599988967,3.550848599988967,3.550848599988967,3.550848599988967,3.6341693999711424,j,0.07860229990910739,None,,,,,,,,,,,,,,,,,,,,585513,001,2025-09-26_05h56.28.333,Priming_gender,,2025.1.1,59.44921494115152,2025-09-26 05h56.31.512684 +0700,
กฤษณะ,กาญจนา,men.png,กฤษณะ,men.png,กฤษณะ,10,50,100,23,23,13,j,0.0822712000226602,None,,,,13,23,23,0,,,,,3.6674573000054806,,,,,,,,,3.647161200060509,3.6674573000054806,3.6674573000054806,3.6674573000054806,3.6674573000054806,3.7511591999791563,j,0.0822712000226602,None,,,,,,,,,,,,,,,,,,,,585513,001,2025-09-26_05h56.28.333,Priming_gender,,2025.1.1,59.44921494115152,2025-09-26 05h56.31.512684 +0700,
นเรศ,พิมพ์ใจ,women.png,นเรศ,men.png,นเรศ,10,51,101,24,24,10,k,0.09283840004354715,None,,,,10,24,24,1,,,,,3.7841551000019535,,,,,,,,,3.764588600024581,3.7841551000019535,3.7841551000019535,3.7841551000019535,3.7841551000019535,3.8842850000364706,k,0.09283840004354715,None,,,,,,,,,,,,,,,,,,,,585513,001,2025-09-26_05h56.28.333,Priming_gender,,2025.1.1,59.44921494115152,2025-09-26 05h56.31.512684 +0700,
นเรศ,พิมพ์ใจ,women.png,นเรศ,men.png,นเรศ,10,51,101,25,25,11,k,0.10992180008906871,None,,,,11,25,25,1,,,,,3.91752150002867,,,,,,,,,3.8972297000000253,3.91752150002867,3.91752150002867,3.91752150002867,3.91752150002867,4.034128500032239,k,0.10992180008906871,None,,,,,,,,,,,,,,,,,,,,585513,001,2025-09-26_05h56.28.333,Priming_gender,,2025.1.1,59.44921494115152,2025-09-26 05h56.31.512684 +0700,
กฤษณะ,กาญจนา,men.png,กฤษณะ,men.png,กฤษณะ,10,50,100,26,26,14,k,0.06488900003023446,None,,,,14,26,26,0,,,,,4.067401899956167,,,,,,,,,4.047005000058562,4.067401899956167,4.067401899956167,4.067401899956167,4.067401899956167,4.1341276000021026,k,0.06488900003023446,None,,,,,,,,,,,,,,,,,,,,585513,001,2025-09-26_05h56.28.333,Priming_gender,,2025.1.1,59.44921494115152,2025-09-26 05h56.31.512684 +0700,
นเรศ,พิมพ์ใจ,women.png,นเรศ,men.png,นเรศ,10,51,101,27,27,12,k,0.07496359990909696,None,,,,12,27,27,1,,,,,4.184883899986744,,,,,,,,,4.166037000017241,4.184883899986744,4.184883899986744,4.184883899986744,4.184883899986744,4.267599100014195,k,0.07496359990909696,None,,,,,,,,,,,,,,,,,,,,585513,001,2025-09-26_05h56.28.333,Priming_gender,,2025.1.1,59.44921494115152,2025-09-26 05h56.31.512684 +0700,
กฤษณะ,กาญจนา,men.png,กฤษณะ,men.png,กฤษณะ,10,50,100,28,28,15,k,0.06412350002210587,None,,,,15,28,28,0,,,,,4.300535200047307,,,,,,,,,4.281144700013101,4.300535200047307,4.300535200047307,4.300535200047307,4.300535200047307,4.36764840001706,k,0.06412350002210587,None,,,,,,,,,,,,,,,,,,,,585513,001,2025-09-26_05h56.28.333,Priming_gender,,2025.1.1,59.44921494115152,2025-09-26 05h56.31.512684 +0700,
กฤษณะ,กาญจนา,men.png,กฤษณะ,men.png,กฤษณะ,10,50,100,29,29,16,k,0.06153219996485859,None,,,,16,29,29,0,,,,,4.400583800044842,,,,,,,,,4.380762999993749,4.400583800044842,4.400583800044842,4.400583800044842,4.400583800044842,4.46764649997931,k,0.06153219996485859,None,,,,,,,,,,,,,,,,,,,,585513,001,2025-09-26_05h56.28.333,Priming_gender,,2025.1.1,59.44921494115152,2025-09-26 05h56.31.512684 +0700,
นเรศ,พิมพ์ใจ,women.png,นเรศ,men.png,นเรศ,10,51,101,30,30,13,k,0.08145269996020943,None,,,,13,30,30,1,,,,,4.500546699971892,,,,,,,,,4.4807443000609055,4.500546699971892,4.500546699971892,4.500546699971892,4.500546699971892,4.585120899952017,k,0.08145269996020943,None,,,,,,,,,,,,,,,,,,,,585513,001,2025-09-26_05h56.28.333,Priming_gender,,2025.1.1,59.44921494115152,2025-09-26 05h56.31.512684 +0700,
กฤษณะ,กาญจนา,men.png,กฤษณะ,men.png,กฤษณะ,10,50,100,31,31,17,k,0.04565590003039688,None,,,,17,31,31,0,,,,,4.618860300048254,,,,,,,,,4.598296100040898,4.618860300048254,4.618860300048254,4.618860300048254,4.618860300048254,4.667469899985008,k,0.04565590003039688,None,,,,,,,,,,,,,,,,,,,,585513,001,2025-09-26_05h56.28.333,Priming_gender,,2025.1.1,59.44921494115152,2025-09-26 05h56.31.512684 +0700,
นเรศ,พิมพ์ใจ,women.png,นเรศ,men.png,นเรศ,10,51,101,32,32,14,k,0.04691210004966706,None,,,,14,32,32,1,,,,,4.700543300015852,,,,,,,,,4.680684700026177,4.700543300015852,4.700543300015852,4.700543300015852,4.700543300015852,4.751055300002918,k,0.04691210004966706,None,,,,,,,,,,,,,,,,,,,,585513,001,2025-09-26_05h56.28.333,Priming_gender,,2025.1.1,59.44921494115152,2025-09-26 05h56.31.512684 +0700,
กฤษณะ,กาญจนา,men.png,กฤษณะ,men.png,กฤษณะ,10,50,100,33,33,18,k,0.15720789995975792,None,,,,18,33,33,0,,,,,4.784914399962872,,,,,,,,,4.764267400023527,4.784914399962872,4.784914399962872,4.784914399962872,4.784914399962872,4.951085299951956,k,0.15720789995975792,None,,,,,,,,,,,,,,,,,,,,585513,001,2025-09-26_05h56.28.333,Priming_gender,,2025.1.1,59.44921494115152,2025-09-26 05h56.31.512684 +0700,
นเรศ,พิมพ์ใจ,women.png,นเรศ,men.png,นเรศ,10,51,101,34,34,15,k,0.1456387999933213,None,,,,15,34,34,1,,,,,4.984097999986261,,,,,,,,,4.963987300056033,4.984097999986261,4.984097999986261,4.984097999986261,4.984097999986261,5.13427010003943,k,0.1456387999933213,None,,,,,,,,,,,,,,,,,,,,585513,001,2025-09-26_05h56.28.333,Priming_gender,,2025.1.1,59.44921494115152,2025-09-26 05h56.31.512684 +0700,
นเรศ,พิมพ์ใจ,women.png,นเรศ,men.png,นเรศ,10,51,101,35,35,16,k,0.18688619998283684,None,,,,16,35,35,1,,,,,5.167967300047167,,,,,,,,,5.147446100017987,5.167967300047167,5.167967300047167,5.167967300047167,5.167967300047167,5.367513800039887,k,0.18688619998283684,None,,,,,,,,,,,,,,,,,,,,585513,001,2025-09-26_05h56.28.333,Priming_gender,,2025.1.1,59.44921494115152,2025-09-26 05h56.31.512684 +0700,
นเรศ,พิมพ์ใจ,women.png,นเรศ,men.png,นเรศ,10,51,101,36,36,17,k,0.09691159997601062,None,,,,17,36,36,1,,,,,5.40052939997986,,,,,,,,,5.381291300058365,5.40052939997986,5.40052939997986,5.40052939997986,5.40052939997986,5.5007525000255555,k,0.09691159997601062,None,,,,,,,,,,,,,,,,,,,,585513,001,2025-09-26_05h56.28.333,Priming_gender,,2025.1.1,59.44921494115152,2025-09-26 05h56.31.512684 +0700,
กฤษณะ,กาญจนา,men.png,กฤษณะ,men.png,กฤษณะ,10,50,100,37,37,19,j,0.12839199998416007,None,,,,19,37,37,0,,,,,5.533920699963346,,,,,,,,,5.51404130004812,5.533920699963346,5.533920699963346,5.533920699963346,5.533920699963346,5.667636799975298,j,0.12839199998416007,None,,,,,,,,,,,,,,,,,,,,585513,001,2025-09-26_05h56.28.333,Priming_gender,,2025.1.1,59.44921494115152,2025-09-26 05h56.31.512684 +0700,
นเรศ,พิมพ์ใจ,women.png,นเรศ,men.png,นเรศ,10,51,101,38,38,18,j,0.11153349990490824,None,,,,18,38,38,1,,,,,5.7005895000183955,,,,,,,,,5.6808836000273,5.7005895000183955,5.7005895000183955,5.7005895000183955,5.7005895000183955,5.8186933000106364,j,0.11153349990490824,None,,,,,,,,,,,,,,,,,,,,585513,001,2025-09-26_05h56.28.333,Priming_gender,,2025.1.1,59.44921494115152,2025-09-26 05h56.31.512684 +0700,
นเรศ,พิมพ์ใจ,women.png,นเรศ,men.png,นเรศ,10,51,101,39,39,19,j,0.08162900002207607,None,,,,19,39,39,1,,,,,5.850818800041452,,,,,,,,,5.83154879999347,5.850818800041452,5.850818800041452,5.850818800041452,5.850818800041452,5.9342089999699965,j,0.08162900002207607,None,,,,,,,,,,,,,,,,,,,,585513,001,2025-09-26_05h56.28.333,Priming_gender,,2025.1.1,59.44921494115152,2025-09-26 05h56.31.512684 +0700,
,,,,,,,,,,,,,,,,,,,,,,,,,,,,,,,,,,,,,,,,,,,,5.934289600001648,5.9508804000215605,5.9508804000215605,11.000590999959968,space,5.04625659994781,None,,,,,,,,,,,,,585513,001,2025-09-26_05h56.28.333,Priming_gender,,2025.1.1,59.44921494115152,2025-09-26 05h56.31.512684 +0700,
None,None,None,None,women.png,กฤษณะ,11,50,120,0,0,0,,,,k,1.7886896999552846,None,,,,,0,0,0,20,11.050725899985991,,,,,,,,,,,,,,,,,,,,,,,,,11.027483599958941,11.050725899985991,11.050725899985991,11.050725899985991,11.050725899985991,11.050725899985991,11.300400099949911,11.350844400003552,12.850735599990003,k,1.7886896999552846,None,585513,001,2025-09-26_05h56.28.333,Priming_gender,,2025.1.1,59.44921494115152,2025-09-26 05h56.31.512684 +0700,
None,None,None,None,women.png,ชัยวัฒน์,11,54,124,1,1,0,,,,k,0.12065129994880408,None,,,,,0,1,1,24,12.883905200054869,,,,,,,,,,,,,,,,,,,,,,,,,12.871425200020894,12.883905200054869,12.883905200054869,12.883905200054869,12.883905200054869,12.883905200054869,,,13.01780809997581,k,0.12065129994880408,None,585513,001,2025-09-26_05h56.28.333,Priming_gender,,2025.1.1,59.44921494115152,2025-09-26 05h56.31.512684 +0700,
None,None,None,None,women.png,ศิริพร,11,64,134,2,2,0,,,,j,0.5916640000650659,None,,,,,0,2,2,34,13.050542699988,,,,,,,,,,,,,,,,,,,,,,,,,13.035588899976574,13.050542699988,13.050542699988,13.050542699988,13.050542699988,13.050542699988,13.317555999965407,13.351236299960874,13.651043000048958,j,0.5916640000650659,None,585513,001,2025-09-26_05h56.28.333,Priming_gender,,2025.1.1,59.44921494115152,2025-09-26 05h56.31.512684 +0700,
พิสิฐ,ปัทมา,None,พิสิฐ,men.png,พิสิฐ,10,59,109,3,3,0,,,,j,0.5058496000710875,None,,,,,0,3,3,9,13.683796799974516,,,,,,,,,,,,,,,,,,,,,,,,,13.668423300026916,13.683796799974516,13.683796799974516,13.683796799974516,13.683796799974516,13.683796799974516,13.950405100011267,13.984317400027066,14.200548900058493,j,0.5058496000710875,None,585513,001,2025-09-26_05h56.28.333,Priming_gender,,2025.1.1,59.44921494115152,2025-09-26 05h56.31.512684 +0700,
ภูมิพัฒน์,จิตติมา,None,ภูมิพัฒน์,men.png,ภูมิพัฒน์,10,56,106,4,4,0,,,,k,0.570877299993299,None,,,,,0,4,4,6,14.233618000056595,,,,,,,,,,,,,,,,,,,,,,,,,14.216954199946485,14.233618000056595,14.233618000056595,14.233618000056595,14.233618000056595,14.233618000056595,14.500351199996658,14.533710799994878,14.817832799977623,k,0.570877299993299,None,585513,001,2025-09-26_05h56.28.333,Priming_gender,,2025.1.1,59.44921494115152,2025-09-26 05h56.31.512684 +0700,
วรพล,วรรณา,None,วรพล,men.png,วรพล,10,57,107,5,5,0,,,,k,0.6437993999570608,None,,,,,0,5,5,7,14.850631600013003,,,,,,,,,,,,,,,,,,,,,,,,,14.832882300019264,14.850631600013003,14.850631600013003,14.850631600013003,14.850631600013003,14.850631600013003,15.117637200048193,15.150487400009297,15.500581000000238,k,0.6437993999570608,None,585513,001,2025-09-26_05h56.28.333,Priming_gender,,2025.1.1,59.44921494115152,2025-09-26 05h56.31.512684 +0700,
None,None,None,กาญจนา,men.png,กาญจนา,10,60,110,6,6,0,,,,k,0.5235613000113517,None,,,,,0,6,6,10,15.533685200032778,,,,,,,,,,,,,,,,,,,,,,,,,15.51795080001466,15.533685200032778,15.533685200032778,15.533685200032778,15.533685200032778,15.533685200032778,15.800419999985024,15.83367449999787,16.067493099952117,k,0.5235613000113517,None,585513,001,2025-09-26_05h56.28.333,Priming_gender,,2025.1.1,59.44921494115152,2025-09-26 05h56.31.512684 +0700,
ชัยวัฒน์,ศิริพร,None,ชัยวัฒน์,men.png,ชัยวัฒน์,10,54,104,7,7,0,,,,j,0.4368164000334218,None,,,,,0,7,7,4,16.100342700025067,,,,,,,,,,,,,,,,,,,,,,,,,16.081074899993837,16.100342700025067,16.100342700025067,16.100342700025067,16.100342700025067,16.100342700025067,16.367257399950176,16.400552700040862,16.551536799990572,j,0.4368164000334218,None,585513,001,2025-09-26_05h56.28.333,Priming_gender,,2025.1.1,59.44921494115152,2025-09-26 05h56.31.512684 +0700,
กฤษณะ,กาญจนา,men.png,กฤษณะ,men.png,กฤษณะ,10,50,100,8,8,0,,,,k,0.4997491000685841,None,,,,,0,8,8,0,16.58489769999869,,,,,,,,,,,,,,,,,,,,,,,,,16.565174799994566,16.58489769999869,16.58489769999869,16.58489769999869,16.58489769999869,16.58489769999869,16.86712750000879,16.900382800027728,17.10054510005284,k,0.4997491000685841,None,585513,001,2025-09-26_05h56.28.333,Priming_gender,,2025.1.1,59.44921494115152,2025-09-26 05h56.31.512684 +0700,
None,None,None,ปัทมา,men.png,ปัทมา,10,69,119,9,9,0,,,,k,0.4758921000175178,None,,,,,0,9,9,19,17.133591699996032,,,,,,,,,,,,,,,,,,,,,,,,,17.11726450000424,17.133591699996032,17.133591699996032,17.133591699996032,17.133591699996032,17.133591699996032,17.417992600006983,17.43368300003931,17.618309700046666,k,0.4758921000175178,None,585513,001,2025-09-26_05h56.28.333,Priming_gender,,2025.1.1,59.44921494115152,2025-09-26 05h56.31.512684 +0700,
ธนพล,วาสนา,None,ธนพล,men.png,ธนพล,10,52,102,10,10,0,,,,k,0.4153603999875486,None,,,,,0,10,10,2,17.651788200018927,,,,,,,,,,,,,,,,,,,,,,,,,17.633309500059113,17.651788200018927,17.651788200018927,17.651788200018927,17.651788200018927,17.651788200018927,17.933572000009008,17.96715939999558,18.08439219999127,k,0.4153603999875486,None,585513,001,2025-09-26_05h56.28.333,Priming_gender,,2025.1.1,59.44921494115152,2025-09-26 05h56.31.512684 +0700,
None,None,None,None,women.png,จิตติมา,11,66,136,11,11,0,,,,j,0.38493910001125187,None,,,,,0,11,11,36,18.11722659994848,,,,,,,,,,,,,,,,,,,,,,,,,18.099225500016473,18.11722659994848,18.11722659994848,18.11722659994848,18.11722659994848,18.11722659994848,18.384666400030255,18.41845680004917,18.518641600036062,j,0.38493910001125187,None,585513,001,2025-09-26_05h56.28.333,Priming_gender,,2025.1.1,59.44921494115152,2025-09-26 05h56.31.512684 +0700,
None,None,None,สุนิสา,men.png,สุนิสา,10,68,118,12,12,0,,,,j,0.5209972999291494,None,,,,,0,12,12,18,18.55097169999499,,,,,,,,,,,,,,,,,,,,,,,,,18.53384589997586,18.55097169999499,18.55097169999499,18.55097169999499,18.55097169999499,18.55097169999499,18.833673599991016,18.85090700001456,19.08439480001107,j,0.5209972999291494,None,585513,001,2025-09-26_05h56.28.333,Priming_gender,,2025.1.1,59.44921494115152,2025-09-26 05h56.31.512684 +0700,
None,None,None,อาภรณ์,men.png,อาภรณ์,10,65,115,13,13,0,,,,k,0.3820095000555739,None,,,,,0,13,13,15,19.117204100009985,,,,,,,,,,,,,,,,,,,,,,,,,19.099906399962492,19.117204100009985,19.117204100009985,19.117204100009985,19.117204100009985,19.117204100009985,19.40048289997503,19.418105900054798,19.500703099998645,k,0.3820095000555739,None,585513,001,2025-09-26_05h56.28.333,Priming_gender,,2025.1.1,59.44921494115152,2025-09-26 05h56.31.512684 +0700,
None,None,None,None,women.png,วาสนา,11,62,132,14,14,0,,,,k,0.4683916000649333,None,,,,,0,14,14,32,19.533790900022723,,,,,,,,,,,,,,,,,,,,,,,,,19.51418229995761,19.533790900022723,19.533790900022723,19.533790900022723,19.533790900022723,19.533790900022723,19.800320100039244,19.833698199945502,20.01757979998365,k,0.4683916000649333,None,585513,001,2025-09-26_05h56.28.333,Priming_gender,,2025.1.1,59.44921494115152,2025-09-26 05h56.31.512684 +0700,
None,None,None,None,women.png,อรรถพล,11,53,123,15,15,0,,,,k,0.3863493000390008,None,,,,,0,15,15,23,20.05039129999932,,,,,,,,,,,,,,,,,,,,,,,,,20.033011100022122,20.05039129999932,20.05039129999932,20.05039129999932,20.05039129999932,20.05039129999932,20.318433200009167,20.36713959998451,20.467371199978516,k,0.3863493000390008,None,585513,001,2025-09-26_05h56.28.333,Priming_gender,,2025.1.1,59.44921494115152,2025-09-26 05h56.31.512684 +0700,
None,None,None,วาสนา,men.png,วาสนา,10,62,112,16,16,0,,,,k,0.5062057999894023,None,,,,,0,16,16,12,20.500440299976617,,,,,,,,,,,,,,,,,,,,,,,,,20.480873699998483,20.500440299976617,20.500440299976617,20.500440299976617,20.500440299976617,20.500440299976617,20.766993700060993,20.80033620004542,21.017568100010976,k,0.5062057999894023,None,585513,001,2025-09-26_05h56.28.333,Priming_gender,,2025.1.1,59.44921494115152,2025-09-26 05h56.31.512684 +0700,
ศักดิ์สิทธิ์,สุนิสา,None,ศักดิ์สิทธิ์,men.png,ศักดิ์สิทธิ์,10,58,108,17,17,0,,,,k,0.09149960009381175,None,,,,,0,17,17,8,21.050475600059144,,,,,,,,,,,,,,,,,,,,,,,,,21.033636300009675,21.050475600059144,21.050475600059144,21.050475600059144,21.050475600059144,21.050475600059144,,,21.151098300004378,k,0.09149960009381175,None,585513,001,2025-09-26_05h56.28.333,Priming_gender,,2025.1.1,59.44921494115152,2025-09-26 05h56.31.512684 +0700,
None,None,None,ศิริพร,men.png,ศิริพร,10,64,114,18,18,0,,,,j,0.5194005999946967,None,,,,,0,18,18,14,21.184743999969214,,,,,,,,,,,,,,,,,,,,,,,,,21.164648000034504,21.184743999969214,21.184743999969214,21.184743999969214,21.184743999969214,21.184743999969214,21.451782800024375,21.533774100011215,21.71786980004981,j,0.5194005999946967,None,585513,001,2025-09-26_05h56.28.333,Priming_gender,,2025.1.1,59.44921494115152,2025-09-26 05h56.31.512684 +0700,
None,None,None,None,women.png,กาญจนา,11,60,130,19,19,0,,,,j,0.3573424000060186,None,,,,,0,19,19,30,21.75204399996437,,,,,,,,,,,,,,,,,,,,,,,,,21.733130499953404,21.75204399996437,21.75204399996437,21.75204399996437,21.75204399996437,21.75204399996437,22.03356969996821,22.066894700052217,22.117708300007507,j,0.3573424000060186,None,585513,001,2025-09-26_05h56.28.333,Priming_gender,,2025.1.1,59.44921494115152,2025-09-26 05h56.31.512684 +0700,
อรรถพล,สุพัตรา,None,อรรถพล,men.png,อรรถพล,10,53,103,20,20,0,,,,j,0.41534910001792014,None,,,,,0,20,20,3,22.15130340005271,,,,,,,,,,,,,,,,,,,,,,,,,22.13079840003047,22.15130340005271,22.15130340005271,22.15130340005271,22.15130340005271,22.15130340005271,22.418179900036193,22.48503930005245,22.584682499989867,j,0.41534910001792014,None,585513,001,2025-09-26_05h56.28.333,Priming_gender,,2025.1.1,59.44921494115152,2025-09-26 05h56.31.512684 +0700,
None,None,None,None,women.png,อาภรณ์,11,65,135,21,21,0,,,,k,0.3538047999609262,None,,,,,0,21,21,35,22.618237299961038,,,,,,,,,,,,,,,,,,,,,,,,,22.59823859995231,22.618237299961038,22.618237299961038,22.618237299961038,22.618237299961038,22.618237299961038,22.90014409995638,22.93358149996493,22.984054200001992,k,0.3538047999609262,None,585513,001,2025-09-26_05h56.28.333,Priming_gender,,2025.1.1,59.44921494115152,2025-09-26 05h56.31.512684 +0700,
None,None,None,None,women.png,พิสิฐ,11,59,129,22,22,0,,,,k,0.4640987999737263,None,,,,,0,22,22,29,23.017637299955823,,,,,,,,,,,,,,,,,,,,,,,,,22.997400099993683,23.017637299955823,23.017637299955823,23.017637299955823,23.017637299955823,23.017637299955823,23.284524800023064,23.333712800056674,23.485428099986166,k,0.4640987999737263,None,585513,001,2025-09-26_05h56.28.333,Priming_gender,,2025.1.1,59.44921494115152,2025-09-26 05h56.31.512684 +0700,
None,None,None,None,women.png,สุพัตรา,11,63,133,23,23,0,,,,k,0.3983023999026045,None,,,,,0,23,23,33,23.51895619998686,,,,,,,,,,,,,,,,,,,,,,,,,23.498888200032525,23.51895619998686,23.51895619998686,23.51895619998686,23.51895619998686,23.51895619998686,23.800413500051945,23.833706800010987,23.918286900036037,k,0.3983023999026045,None,585513,001,2025-09-26_05h56.28.333,Priming_gender,,2025.1.1,59.44921494115152,2025-09-26 05h56.31.512684 +0700,
None,None,None,None,women.png,ศักดิ์สิทธิ์,11,58,128,24,24,0,,,,j,0.400859999936074,None,,,,,0,24,24,28,23.95146999997087,,,,,,,,,,,,,,,,,,,,,,,,,23.932512099971063,23.95146999997087,23.95146999997087,23.95146999997087,23.95146999997087,23.95146999997087,24.23364880005829,24.266915600048378,24.367217499995604,j,0.400859999936074,None,585513,001,2025-09-26_05h56.28.333,Priming_gender,,2025.1.1,59.44921494115152,2025-09-26 05h56.31.512684 +0700,
นเรศ,พิมพ์ใจ,women.png,นเรศ,men.png,นเรศ,10,51,101,25,25,0,,,,j,0.4766206999775022,None,,,,,0,25,25,1,24.400380600010976,,,,,,,,,,,,,,,,,,,,,,,,,24.382268900051713,24.400380600010976,24.400380600010976,24.400380600010976,24.400380600010976,24.400380600010976,24.700292599969544,24.733657800010405,24.884739900007844,j,0.4766206999775022,None,585513,001,2025-09-26_05h56.28.333,Priming_gender,,2025.1.1,59.44921494115152,2025-09-26 05h56.31.512684 +0700,
ปริญญา,อาภรณ์,None,ปริญญา,men.png,ปริญญา,10,55,105,26,26,0,,,,j,0.34156790003180504,None,,,,,0,26,26,5,24.917751600034535,,,,,,,,,,,,,,,,,,,,,,,,,24.898493199958466,24.917751600034535,24.917751600034535,24.917751600034535,24.917751600034535,24.917751600034535,25.200144700007513,25.21835740003735,25.267157700029202,j,0.34156790003180504,None,585513,001,2025-09-26_05h56.28.333,Priming_gender,,2025.1.1,59.44921494115152,2025-09-26 05h56.31.512684 +0700,
None,None,None,None,women.png,พิมพ์ใจ,11,61,131,27,27,0,,,,k,0.4464614000171423,None,,,,,0,27,27,31,25.300165300024673,,,,,,,,,,,,,,,,,,,,,,,,,25.283120600041002,25.300165300024673,25.300165300024673,25.300165300024673,25.300165300024673,25.300165300024673,25.568850700045004,25.633699400001206,25.767143200035207,k,0.4464614000171423,None,585513,001,2025-09-26_05h56.28.333,Priming_gender,,2025.1.1,59.44921494115152,2025-09-26 05h56.31.512684 +0700,
None,None,None,จิตติมา,men.png,จิตติมา,10,66,116,28,28,0,,,,k,0.4043028000742197,None,,,,,0,28,28,16,25.80022169998847,,,,,,,,,,,,,,,,,,,,,,,,,25.78113390004728,25.80022169998847,25.80022169998847,25.80022169998847,25.80022169998847,25.80022169998847,26.066800600034185,26.100336499977857,26.233841000008397,k,0.4043028000742197,None,585513,001,2025-09-26_05h56.28.333,Priming_gender,,2025.1.1,59.44921494115152,2025-09-26 05h56.31.512684 +0700,
None,None,None,None,women.png,ปัทมา,11,69,139,29,29,0,,,,k,0.3179414999904111,None,,,,,0,29,29,39,26.268827800056897,,,,,,,,,,,,,,,,,,,,,,,,,26.247482700040564,26.268827800056897,26.268827800056897,26.268827800056897,26.268827800056897,26.268827800056897,26.53360059997067,26.584913600003347,26.600559400045313,k,0.3179414999904111,None,585513,001,2025-09-26_05h56.28.333,Priming_gender,,2025.1.1,59.44921494115152,2025-09-26 05h56.31.512684 +0700,
None,None,None,None,women.png,วรพล,11,57,127,30,30,0,,,,j,0.34319780010264367,None,,,,,0,30,30,27,26.633684400003403,,,,,,,,,,,,,,,,,,,,,,,,,26.613935200031847,26.633684400003403,26.633684400003403,26.633684400003403,26.633684400003403,26.633684400003403,26.900081400061026,26.93341070006136,26.98464579996653,j,0.34319780010264367,None,585513,001,2025-09-26_05h56.28.333,Priming_gender,,2025.1.1,59.44921494115152,2025-09-26 05h56.31.512684 +0700,
None,None,None,None,women.png,วรรณา,11,67,137,31,31,0,,,,k,0.40187179995700717,None,,,,,0,31,31,37,27.017319899983704,,,,,,,,,,,,,,,,,,,,,,,,,26.99777819996234,27.017319899983704,27.017319899983704,27.017319899983704,27.017319899983704,27.017319899983704,27.30006040004082,27.31671779998578,27.433946499950252,k,0.40187179995700717,None,585513,001,2025-09-26_05h56.28.333,Priming_gender,,2025.1.1,59.44921494115152,2025-09-26 05h56.31.512684 +0700,
None,None,None,None,women.png,ปริญญา,11,55,125,32,32,0,,,,j,0.3860405000159517,None,,,,,0,32,32,25,27.468132599955425,,,,,,,,,,,,,,,,,,,,,,,,,27.447821700014174,27.468132599955425,27.468132599955425,27.468132599955425,27.468132599955425,27.468132599955425,27.73355929995887,27.784396999981254,27.867086100042798,j,0.3860405000159517,None,585513,001,2025-09-26_05h56.28.333,Priming_gender,,2025.1.1,59.44921494115152,2025-09-26 05h56.31.512684 +0700,
None,None,None,พิมพ์ใจ,men.png,พิมพ์ใจ,10,61,111,33,33,0,,,,k,0.37421480007469654,None,,,,,0,33,33,11,27.900320900022052,,,,,,,,,,,,,,,,,,,,,,,,,27.88077719998546,27.900320900022052,27.900320900022052,27.900320900022052,27.900320900022052,27.900320900022052,28.166751999990083,28.200132100027986,28.28358849999495,k,0.37421480007469654,None,585513,001,2025-09-26_05h56.28.333,Priming_gender,,2025.1.1,59.44921494115152,2025-09-26 05h56.31.512684 +0700,
None,None,None,None,women.png,ภูมิพัฒน์,11,56,126,34,34,0,,,,j,0.4675630999263376,None,,,,,0,34,34,26,28.316734499996528,,,,,,,,,,,,,,,,,,,,,,,,,28.29695200000424,28.316734499996528,28.316734499996528,28.316734499996528,28.316734499996528,28.316734499996528,28.583385200006887,28.616876399959438,28.78469010000117,j,0.4675630999263376,None,585513,001,2025-09-26_05h56.28.333,Priming_gender,,2025.1.1,59.44921494115152,2025-09-26 05h56.31.512684 +0700,
None,None,None,สุพัตรา,men.png,สุพัตรา,10,63,113,35,35,0,,,,k,0.3706157000269741,None,,,,,0,35,35,13,28.818650000030175,,,,,,,,,,,,,,,,,,,,,,,,,28.804063000017777,28.818650000030175,28.818650000030175,28.818650000030175,28.818650000030175,28.818650000030175,29.100079099996947,29.133432299946435,29.200483400025405,k,0.3706157000269741,None,585513,001,2025-09-26_05h56.28.333,Priming_gender,,2025.1.1,59.44921494115152,2025-09-26 05h56.31.512684 +0700,
None,None,None,None,women.png,สุนิสา,11,68,138,36,36,0,,,,,,,,,,,0,36,36,38,29.233597600017674,,,,,,,,,,,,,,,,,,,,,,,,,29.213776299962774,29.233597600017674,29.233597600017674,29.233597600017674,29.233597600017674,29.233597600017674,29.500164599972777,29.533399099949747,,,,,,,,,,,,,
