Male,Female,Image,Name,ImagePriming,NamePriming,thisN,thisTrialN,thisRepN,key_resp.keys,key_resp.rt,key_resp.duration,key_resp_3.keys,key_resp_3.rt,key_resp_3.duration,training.thisRepN,training.thisTrialN,training.thisN,training.thisIndex,priming.thisRepN,priming.thisTrialN,priming.thisN,priming.thisIndex,thisRow.t,notes,training_Instruction.started,instruction_slide.started,instruction_continue.started,training_Instruction.stopped,instruction_continue.keys,instruction_continue.rt,instruction_continue.duration,training_block.started,MAN.started,WOMAN.started,pic.started,key_resp.started,training_block.stopped,training.key_resp.keys,training.key_resp.rt,training.key_resp.duration,priming_instruction.started,instruction_slide_2.started,instruction_continue_2.started,priming_instruction.stopped,instruction_continue_2.keys,instruction_continue_2.rt,instruction_continue_2.duration,priming_block.started,MAN_3.started,MAN_3_desc.started,WOMAN_3.started,name_2.started,key_resp_3.started,pic_2.started,name_2.stopped,priming_block.stopped,priming.key_resp_3.keys,priming.key_resp_3.rt,priming.key_resp_3.duration,participant,session,date,expName,expVersion,psychopyVersion,frameRate,expStart,
,,,,,,,,,,,,,,,,,,,,,,,,,0.07606589992064983,0.09391099994536489,0.09391099994536489,1.6637630999321118,space,1.560449599986896,None,,,,,,,,,,,,,,,,,,,,,,,,,,,,,690624,001,2025-09-26_05h07.03.651,Priming_gender,,2025.1.1,60.06359534351802,2025-09-26 05h07.06.809918 +0700,
นเรศ,พิมพ์ใจ,women.png,นเรศ,men.png,นเรศ,0,0,0,k,0.7011037999764085,None,,,,0,0,0,1,,,,,1.693914399947971,,,,,,,,,1.6865461999550462,1.693914399947971,1.693914399947971,1.693914399947971,1.693914399947971,2.411036599893123,k,0.7011037999764085,None,,,,,,,,,,,,,,,,,,,,690624,001,2025-09-26_05h07.03.651,Priming_gender,,2025.1.1,60.06359534351802,2025-09-26 05h07.06.809918 +0700,
กฤษณะ,กาญจนา,men.png,กฤษณะ,men.png,กฤษณะ,1,1,0,j,0.04759700002614409,None,,,,0,1,1,0,,,,,2.4442842999706045,,,,,,,,,2.4260465999832377,2.4442842999706045,2.4442842999706045,2.4442842999706045,2.4442842999706045,2.4941576999844983,j,0.04759700002614409,None,,,,,,,,,,,,,,,,,,,,690624,001,2025-09-26_05h07.03.651,Priming_gender,,2025.1.1,60.06359534351802,2025-09-26 05h07.06.809918 +0700,
นเรศ,พิมพ์ใจ,women.png,นเรศ,men.png,นเรศ,2,2,1,k,0.07699139998294413,None,,,,1,2,2,1,,,,,2.5275392999174073,,,,,,,,,2.5092764999717474,2.5275392999174073,2.5275392999174073,2.5275392999174073,2.5275392999174073,2.6110283999005333,k,0.07699139998294413,None,,,,,,,,,,,,,,,,,,,,690624,001,2025-09-26_05h07.03.651,Priming_gender,,2025.1.1,60.06359534351802,2025-09-26 05h07.06.809918 +0700,
นเรศ,พิมพ์ใจ,women.png,นเรศ,men.png,นเรศ,3,3,2,j,0.03575679997447878,None,,,,2,3,3,1,,,,,2.6438578999368474,,,,,,,,,2.626828599954024,2.6438578999368474,2.6438578999368474,2.6438578999368474,2.6438578999368474,2.69417929998599,j,0.03575679997447878,None,,,,,,,,,,,,,,,,,,,,690624,001,2025-09-26_05h07.03.651,Priming_gender,,2025.1.1,60.06359534351802,2025-09-26 05h07.06.809918 +0700,
กฤษณะ,กาญจนา,men.png,กฤษณะ,men.png,กฤษณะ,4,4,1,k,0.012232500012032688,None,,,,1,4,4,0,,,,,2.7274433999555185,,,,,,,,,2.70909259992186,2.7274433999555185,2.7274433999555185,2.7274433999555185,2.7274433999555185,2.744172599981539,k,0.012232500012032688,None,,,,,,,,,,,,,,,,,,,,690624,001,2025-09-26_05h07.03.651,Priming_gender,,2025.1.1,60.06359534351802,2025-09-26 05h07.06.809918 +0700,
นเรศ,พิมพ์ใจ,women.png,นเรศ,men.png,นเรศ,5,5,3,j,0.03004390001296997,None,,,,3,5,5,1,,,,,2.777252299943939,,,,,,,,,2.759133599931374,2.777252299943939,2.777252299943939,2.777252299943939,2.777252299943939,2.810845599975437,j,0.03004390001296997,None,,,,,,,,,,,,,,,,,,,,690624,001,2025-09-26_05h07.03.651,Priming_gender,,2025.1.1,60.06359534351802,2025-09-26 05h07.06.809918 +0700,
นเรศ,พิมพ์ใจ,women.png,นเรศ,men.png,นเรศ,6,6,4,k,0.05310790007933974,None,,,,4,6,6,1,,,,,2.843996199895628,,,,,,,,,2.8264409999828786,2.843996199895628,2.843996199895628,2.843996199895628,2.843996199895628,2.9107634999090806,k,0.05310790007933974,None,,,,,,,,,,,,,,,,,,,,690624,001,2025-09-26_05h07.03.651,Priming_gender,,2025.1.1,60.06359534351802,2025-09-26 05h07.06.809918 +0700,
กฤษณะ,กาญจนา,men.png,กฤษณะ,men.png,กฤษณะ,7,7,2,j,0.012418500031344593,None,,,,2,7,7,0,,,,,2.9444263000041246,,,,,,,,,2.926215499988757,2.9444263000041246,2.9444263000041246,2.9444263000041246,2.9444263000041246,2.960902899969369,j,0.012418500031344593,None,,,,,,,,,,,,,,,,,,,,690624,001,2025-09-26_05h07.03.651,Priming_gender,,2025.1.1,60.06359534351802,2025-09-26 05h07.06.809918 +0700,
กฤษณะ,กาญจนา,men.png,กฤษณะ,men.png,กฤษณะ,8,8,3,k,0.0454230000032112,None,,,,3,8,8,0,,,,,2.994042699923739,,,,,,,,,2.9759602999547496,2.994042699923739,2.994042699923739,2.994042699923739,2.994042699923739,3.044179599964991,k,0.0454230000032112,None,,,,,,,,,,,,,,,,,,,,690624,001,2025-09-26_05h07.03.651,Priming_gender,,2025.1.1,60.06359534351802,2025-09-26 05h07.06.809918 +0700,
กฤษณะ,กาญจนา,men.png,กฤษณะ,men.png,กฤษณะ,9,9,4,j,0.037359500071033835,None,,,,4,9,9,0,,,,,3.0772240998921916,,,,,,,,,3.0595206998987123,3.0772240998921916,3.0772240998921916,3.0772240998921916,3.0772240998921916,3.127574799931608,j,0.037359500071033835,None,,,,,,,,,,,,,,,,,,,,690624,001,2025-09-26_05h07.03.651,Priming_gender,,2025.1.1,60.06359534351802,2025-09-26 05h07.06.809918 +0700,
กฤษณะ,กาญจนา,men.png,กฤษณะ,men.png,กฤษณะ,10,10,5,k,0.05120539991185069,None,,,,5,10,10,0,,,,,3.1606104999082163,,,,,,,,,3.1423330999678,3.1606104999082163,3.1606104999082163,3.1606104999082163,3.1606104999082163,3.2275451999157667,k,0.05120539991185069,None,,,,,,,,,,,,,,,,,,,,690624,001,2025-09-26_05h07.03.651,Priming_gender,,2025.1.1,60.06359534351802,2025-09-26 05h07.06.809918 +0700,
กฤษณะ,กาญจนา,men.png,กฤษณะ,men.png,กฤษณะ,11,11,6,j,0.004006100003607571,None,,,,6,11,11,0,,,,,3.2605559999356046,,,,,,,,,3.2430214999476448,3.2605559999356046,3.2605559999356046,3.2605559999356046,3.2605559999356046,3.277572299935855,j,0.004006100003607571,None,,,,,,,,,,,,,,,,,,,,690624,001,2025-09-26_05h07.03.651,Priming_gender,,2025.1.1,60.06359534351802,2025-09-26 05h07.06.809918 +0700,
นเรศ,พิมพ์ใจ,women.png,นเรศ,men.png,นเรศ,12,12,5,k,0.058756599901244044,None,,,,5,12,12,1,,,,,3.3105624999152496,,,,,,,,,3.292255899985321,3.3105624999152496,3.3105624999152496,3.3105624999152496,3.3105624999152496,3.3776325999060646,k,0.058756599901244044,None,,,,,,,,,,,,,,,,,,,,690624,001,2025-09-26_05h07.03.651,Priming_gender,,2025.1.1,60.06359534351802,2025-09-26 05h07.06.809918 +0700,
นเรศ,พิมพ์ใจ,women.png,นเรศ,men.png,นเรศ,13,13,6,j,0.018758099991828203,None,,,,6,13,13,1,,,,,3.4109114999882877,,,,,,,,,3.39271279994864,3.4109114999882877,3.4109114999882877,3.4109114999882877,3.4109114999882877,3.4440696999663487,j,0.018758099991828203,None,,,,,,,,,,,,,,,,,,,,690624,001,2025-09-26_05h07.03.651,Priming_gender,,2025.1.1,60.06359534351802,2025-09-26 05h07.06.809918 +0700,
กฤษณะ,กาญจนา,men.png,กฤษณะ,men.png,กฤษณะ,14,14,7,k,0.057072099996730685,None,,,,7,14,14,0,,,,,3.4772485999856144,,,,,,,,,3.4592241999926046,3.4772485999856144,3.4772485999856144,3.4772485999856144,3.4772485999856144,3.544155199895613,k,0.057072099996730685,None,,,,,,,,,,,,,,,,,,,,690624,001,2025-09-26_05h07.03.651,Priming_gender,,2025.1.1,60.06359534351802,2025-09-26 05h07.06.809918 +0700,
กฤษณะ,กาญจนา,men.png,กฤษณะ,men.png,กฤษณะ,15,15,8,j,0.018235999974422157,None,,,,8,15,15,0,,,,,3.5771665999200195,,,,,,,,,3.5598600999219343,3.5771665999200195,3.5771665999200195,3.5771665999200195,3.5771665999200195,3.6108103999868035,j,0.018235999974422157,None,,,,,,,,,,,,,,,,,,,,690624,001,2025-09-26_05h07.03.651,Priming_gender,,2025.1.1,60.06359534351802,2025-09-26 05h07.06.809918 +0700,
นเรศ,พิมพ์ใจ,women.png,นเรศ,men.png,นเรศ,16,16,7,k,0.07061369996517897,None,,,,7,16,16,1,,,,,3.64405329991132,,,,,,,,,3.6262001999421045,3.64405329991132,3.64405329991132,3.64405329991132,3.64405329991132,3.72765079990495,k,0.07061369996517897,None,,,,,,,,,,,,,,,,,,,,690624,001,2025-09-26_05h07.03.651,Priming_gender,,2025.1.1,60.06359534351802,2025-09-26 05h07.06.809918 +0700,
นเรศ,พิมพ์ใจ,women.png,นเรศ,men.png,นเรศ,17,17,8,j,0.013690299936570227,None,,,,8,17,17,1,,,,,3.760965499910526,,,,,,,,,3.742872199974954,3.760965499910526,3.760965499910526,3.760965499910526,3.760965499910526,3.7774686999619007,j,0.013690299936570227,None,,,,,,,,,,,,,,,,,,,,690624,001,2025-09-26_05h07.03.651,Priming_gender,,2025.1.1,60.06359534351802,2025-09-26 05h07.06.809918 +0700,
นเรศ,พิมพ์ใจ,women.png,นเรศ,men.png,นเรศ,18,18,9,k,0.07655330002307892,None,,,,9,18,18,1,,,,,3.8105565999867395,,,,,,,,,3.792359899962321,3.8105565999867395,3.8105565999867395,3.8105565999867395,3.8105565999867395,3.8942950000055134,k,0.07655330002307892,None,,,,,,,,,,,,,,,,,,,,690624,001,2025-09-26_05h07.03.651,Priming_gender,,2025.1.1,60.06359534351802,2025-09-26 05h07.06.809918 +0700,
กฤษณะ,กาญจนา,men.png,กฤษณะ,men.png,กฤษณะ,19,19,9,j,0.026913499925285578,None,,,,9,19,19,0,,,,,3.9277872999664396,,,,,,,,,3.9106517999898642,3.9277872999664396,3.9277872999664396,3.9277872999664396,3.9277872999664396,3.960813899990171,j,0.026913499925285578,None,,,,,,,,,,,,,,,,,,,,690624,001,2025-09-26_05h07.03.651,Priming_gender,,2025.1.1,60.06359534351802,2025-09-26 05h07.06.809918 +0700,
นเรศ,พิมพ์ใจ,women.png,นเรศ,men.png,นเรศ,20,20,10,k,0.08056759997271001,None,,,,10,20,20,1,,,,,3.9941720999777317,,,,,,,,,3.9755168999545276,3.9941720999777317,3.9941720999777317,3.9941720999777317,3.9941720999777317,4.077428799937479,k,0.08056759997271001,None,,,,,,,,,,,,,,,,,,,,690624,001,2025-09-26_05h07.03.651,Priming_gender,,2025.1.1,60.06359534351802,2025-09-26 05h07.06.809918 +0700,
กฤษณะ,กาญจนา,men.png,กฤษณะ,men.png,กฤษณะ,21,21,10,j,0.03143350000027567,None,,,,10,21,21,0,,,,,4.110465299920179,,,,,,,,,4.093306199996732,4.110465299920179,4.110465299920179,4.110465299920179,4.110465299920179,4.144303799956106,j,0.03143350000027567,None,,,,,,,,,,,,,,,,,,,,690624,001,2025-09-26_05h07.03.651,Priming_gender,,2025.1.1,60.06359534351802,2025-09-26 05h07.06.809918 +0700,
กฤษณะ,กาญจนา,men.png,กฤษณะ,men.png,กฤษณะ,22,22,11,k,0.069885200005956,None,,,,11,22,22,0,,,,,4.177282799966633,,,,,,,,,4.159320699982345,4.177282799966633,4.177282799966633,4.177282799966633,4.177282799966633,4.261011799913831,k,0.069885200005956,None,,,,,,,,,,,,,,,,,,,,690624,001,2025-09-26_05h07.03.651,Priming_gender,,2025.1.1,60.06359534351802,2025-09-26 05h07.06.809918 +0700,
นเรศ,พิมพ์ใจ,women.png,นเรศ,men.png,นเรศ,23,23,11,j,0.028102300013415515,None,,,,11,23,23,1,,,,,4.2938185998937115,,,,,,,,,4.276525599998422,4.2938185998937115,4.2938185998937115,4.2938185998937115,4.2938185998937115,4.327577199903317,j,0.028102300013415515,None,,,,,,,,,,,,,,,,,,,,690624,001,2025-09-26_05h07.03.651,Priming_gender,,2025.1.1,60.06359534351802,2025-09-26 05h07.06.809918 +0700,
นเรศ,พิมพ์ใจ,women.png,นเรศ,men.png,นเรศ,24,24,12,k,0.07367089996114373,None,,,,12,24,24,1,,,,,4.36064259998966,,,,,,,,,4.342016899958253,4.36064259998966,4.36064259998966,4.36064259998966,4.36064259998966,4.444337799912319,k,0.07367089996114373,None,,,,,,,,,,,,,,,,,,,,690624,001,2025-09-26_05h07.03.651,Priming_gender,,2025.1.1,60.06359534351802,2025-09-26 05h07.06.809918 +0700,
นเรศ,พิมพ์ใจ,women.png,นเรศ,men.png,นเรศ,25,25,13,j,0.03260729997418821,None,,,,13,25,25,1,,,,,4.477146599907428,,,,,,,,,4.459871799917892,4.477146599907428,4.477146599907428,4.477146599907428,4.477146599907428,4.510840599890798,j,0.03260729997418821,None,,,,,,,,,,,,,,,,,,,,690624,001,2025-09-26_05h07.03.651,Priming_gender,,2025.1.1,60.06359534351802,2025-09-26 05h07.06.809918 +0700,
กฤษณะ,กาญจนา,men.png,กฤษณะ,men.png,กฤษณะ,26,26,12,k,0.06330139993224293,None,,,,12,26,26,0,,,,,4.543855399941094,,,,,,,,,4.526206499896944,4.543855399941094,4.543855399941094,4.543855399941094,4.543855399941094,4.610905499896035,k,0.06330139993224293,None,,,,,,,,,,,,,,,,,,,,690624,001,2025-09-26_05h07.03.651,Priming_gender,,2025.1.1,60.06359534351802,2025-09-26 05h07.06.809918 +0700,
นเรศ,พิมพ์ใจ,women.png,นเรศ,men.png,นเรศ,27,27,14,j,0.030160399968735874,None,,,,14,27,27,1,,,,,4.644432899891399,,,,,,,,,4.626320399926044,4.644432899891399,4.644432899891399,4.644432899891399,4.644432899891399,4.677438299986534,j,0.030160399968735874,None,,,,,,,,,,,,,,,,,,,,690624,001,2025-09-26_05h07.03.651,Priming_gender,,2025.1.1,60.06359534351802,2025-09-26 05h07.06.809918 +0700,
นเรศ,พิมพ์ใจ,women.png,นเรศ,men.png,นเรศ,28,28,15,k,0.07655070000328124,None,,,,15,28,28,1,,,,,4.7106053999159485,,,,,,,,,4.692273499909788,4.7106053999159485,4.7106053999159485,4.7106053999159485,4.7106053999159485,4.7940801999066025,k,0.07655070000328124,None,,,,,,,,,,,,,,,,,,,,690624,001,2025-09-26_05h07.03.651,Priming_gender,,2025.1.1,60.06359534351802,2025-09-26 05h07.06.809918 +0700,
กฤษณะ,กาญจนา,men.png,กฤษณะ,men.png,กฤษณะ,29,29,13,j,0.04177400004118681,None,,,,13,29,29,0,,,,,4.8275030999211594,,,,,,,,,4.809279099921696,4.8275030999211594,4.8275030999211594,4.8275030999211594,4.8275030999211594,4.8775222999975085,j,0.04177400004118681,None,,,,,,,,,,,,,,,,,,,,690624,001,2025-09-26_05h07.03.651,Priming_gender,,2025.1.1,60.06359534351802,2025-09-26 05h07.06.809918 +0700,
กฤษณะ,กาญจนา,men.png,กฤษณะ,men.png,กฤษณะ,30,30,14,k,0.0490740000968799,None,,,,14,30,30,0,,,,,4.910611399915069,,,,,,,,,4.892957199946977,4.910611399915069,4.910611399915069,4.910611399915069,4.910611399915069,4.960793099948205,k,0.0490740000968799,None,,,,,,,,,,,,,,,,,,,,690624,001,2025-09-26_05h07.03.651,Priming_gender,,2025.1.1,60.06359534351802,2025-09-26 05h07.06.809918 +0700,
นเรศ,พิมพ์ใจ,women.png,นเรศ,men.png,นเรศ,31,31,16,j,0.055546000017784536,None,,,,16,31,31,1,,,,,4.994022300001234,,,,,,,,,4.976500599994324,4.994022300001234,4.994022300001234,4.994022300001234,4.994022300001234,5.06097329990007,j,0.055546000017784536,None,,,,,,,,,,,,,,,,,,,,690624,001,2025-09-26_05h07.03.651,Priming_gender,,2025.1.1,60.06359534351802,2025-09-26 05h07.06.809918 +0700,
นเรศ,พิมพ์ใจ,women.png,นเรศ,men.png,นเรศ,32,32,17,k,0.060304699931293726,None,,,,17,32,32,1,,,,,5.094335999921896,,,,,,,,,5.076261199894361,5.094335999921896,5.094335999921896,5.094335999921896,5.094335999921896,5.160835899994709,k,0.060304699931293726,None,,,,,,,,,,,,,,,,,,,,690624,001,2025-09-26_05h07.03.651,Priming_gender,,2025.1.1,60.06359534351802,2025-09-26 05h07.06.809918 +0700,
กฤษณะ,กาญจนา,men.png,กฤษณะ,men.png,กฤษณะ,33,33,15,j,0.03565740003250539,None,,,,15,33,33,0,,,,,5.193824099958874,,,,,,,,,5.176104999962263,5.193824099958874,5.193824099958874,5.193824099958874,5.193824099958874,5.244322199956514,j,0.03565740003250539,None,,,,,,,,,,,,,,,,,,,,690624,001,2025-09-26_05h07.03.651,Priming_gender,,2025.1.1,60.06359534351802,2025-09-26 05h07.06.809918 +0700,
กฤษณะ,กาญจนา,men.png,กฤษณะ,men.png,กฤษณะ,34,34,16,k,0.042100800084881485,None,,,,16,34,34,0,,,,,5.277470099972561,,,,,,,,,5.2598156000021845,5.277470099972561,5.277470099972561,5.277470099972561,5.277470099972561,5.327933399938047,k,0.042100800084881485,None,,,,,,,,,,,,,,,,,,,,690624,001,2025-09-26_05h07.03.651,Priming_gender,,2025.1.1,60.06359534351802,2025-09-26 05h07.06.809918 +0700,
กฤษณะ,กาญจนา,men.png,กฤษณะ,men.png,กฤษณะ,35,35,17,j,0.09326370002236217,None,,,,17,35,35,0,,,,,5.361137199914083,,,,,,,,,5.342674499959685,5.361137199914083,5.361137199914083,5.361137199914083,5.361137199914083,5.460794899961911,j,0.09326370002236217,None,,,,,,,,,,,,,,,,,,,,690624,001,2025-09-26_05h07.03.651,Priming_gender,,2025.1.1,60.06359534351802,2025-09-26 05h07.06.809918 +0700,
นเรศ,พิมพ์ใจ,women.png,นเรศ,men.png,นเรศ,36,36,18,k,0.06568050000350922,None,,,,18,36,36,1,,,,,5.493901399895549,,,,,,,,,5.4766989999916404,5.493901399895549,5.493901399895549,5.493901399895549,5.493901399895549,5.561333299963735,k,0.06568050000350922,None,,,,,,,,,,,,,,,,,,,,690624,001,2025-09-26_05h07.03.651,Priming_gender,,2025.1.1,60.06359534351802,2025-09-26 05h07.06.809918 +0700,
กฤษณะ,กาญจนา,men.png,กฤษณะ,men.png,กฤษณะ,37,37,18,j,0.25075910007581115,None,,,,18,37,37,0,,,,,5.5938037999439985,,,,,,,,,5.576223499956541,5.5938037999439985,5.5938037999439985,5.5938037999439985,5.5938037999439985,5.860889699892141,j,0.25075910007581115,None,,,,,,,,,,,,,,,,,,,,690624,001,2025-09-26_05h07.03.651,Priming_gender,,2025.1.1,60.06359534351802,2025-09-26 05h07.06.809918 +0700,
นเรศ,พิมพ์ใจ,women.png,นเรศ,men.png,นเรศ,38,38,19,k,0.07801059994380921,None,,,,19,38,38,1,,,,,5.893797899945639,,,,,,,,,5.876067199977115,5.893797899945639,5.893797899945639,5.893797899945639,5.893797899945639,5.977464399999008,k,0.07801059994380921,None,,,,,,,,,,,,,,,,,,,,690624,001,2025-09-26_05h07.03.651,Priming_gender,,2025.1.1,60.06359534351802,2025-09-26 05h07.06.809918 +0700,
กฤษณะ,กาญจนา,men.png,กฤษณะ,men.png,กฤษณะ,39,39,19,j,0.05185370007529855,None,,,,19,39,39,0,,,,,6.010377899976447,,,,,,,,,5.992911099921912,6.010377899976447,6.010377899976447,6.010377899976447,6.010377899976447,6.0774198999861255,j,0.05185370007529855,None,,,,,,,,,,,,,,,,,,,,690624,001,2025-09-26_05h07.03.651,Priming_gender,,2025.1.1,60.06359534351802,2025-09-26 05h07.06.809918 +0700,
,,,,,,,,,,,,,,,,,,,,,,,,,,,,,,,,,,,,,,,,,6.077496499987319,6.093894199933857,6.093894199933857,9.161243799957447,space,3.0600266000255942,None,,,,,,,,,,,,,690624,001,2025-09-26_05h07.03.651,Priming_gender,,2025.1.1,60.06359534351802,2025-09-26 05h07.06.809918 +0700,
นเรศ,พิมพ์ใจ,women.png,นเรศ,men.png,นเรศ,0,0,0,,,,k,2.2309552000369877,None,,,,,0,0,0,1,9.210860399995,,,,,,,,,,,,,,,,,,,,,,,,,9.188096500001848,9.210860399995,9.210860399995,9.210860399995,9.210860399995,9.210860399995,9.660461599938571,9.710454699932598,11.445202199975029,k,2.2309552000369877,None,690624,001,2025-09-26_05h07.03.651,Priming_gender,,2025.1.1,60.06359534351802,2025-09-26 05h07.06.809918 +0700,
กฤษณะ,กาญจนา,men.png,กฤษณะ,men.png,กฤษณะ,1,1,0,,,,k,0.9674952999921516,None,,,,,0,1,1,0,11.477026799926534,,,,,,,,,,,,,,,,,,,,,,,,,11.466655399999581,11.477026799926534,11.477026799926534,11.477026799926534,11.477026799926534,11.477026799926534,11.960328899906017,11.977198799955659,12.460701299947686,k,0.9674952999921516,None,690624,001,2025-09-26_05h07.03.651,Priming_gender,,2025.1.1,60.06359534351802,2025-09-26 05h07.06.809918 +0700,
None,None,None,None,women.png,กาญจนา,2,2,0,,,,j,2.0205255000619218,None,,,,,0,2,2,30,12.493934499914758,,,,,,,,,,,,,,,,,,,,,,,,,12.480694399913773,12.493934499914758,12.493934499914758,12.493934499914758,12.493934499914758,12.493934499914758,12.96075369999744,12.993913299986161,14.527311399928294,j,2.0205255000619218,None,690624,001,2025-09-26_05h07.03.651,Priming_gender,,2025.1.1,60.06359534351802,2025-09-26 05h07.06.809918 +0700,
None,None,None,สุพัตรา,men.png,สุพัตรา,3,3,0,,,,j,1.0860599000006914,None,,,,,0,3,3,13,14.560732399928384,,,,,,,,,,,,,,,,,,,,,,,,,14.546872699982487,14.560732399928384,14.560732399928384,14.560732399928384,14.560732399928384,14.560732399928384,15.027031200006604,15.060566999949515,15.660836099996231,j,1.0860599000006914,None,690624,001,2025-09-26_05h07.03.651,Priming_gender,,2025.1.1,60.06359534351802,2025-09-26 05h07.06.809918 +0700,
None,None,None,ศิริพร,men.png,ศิริพร,4,4,0,,,,j,0.6509786000242457,None,,,,,0,4,4,14,15.693885499960743,,,,,,,,,,,,,,,,,,,,,,,,,15.677448199945502,15.693885499960743,15.693885499960743,15.693885499960743,15.693885499960743,15.693885499960743,16.16050249990076,16.194322199909948,16.36044109996874,j,0.6509786000242457,None,690624,001,2025-09-26_05h07.03.651,Priming_gender,,2025.1.1,60.06359534351802,2025-09-26 05h07.06.809918 +0700,
ปริญญา,อาภรณ์,None,ปริญญา,men.png,ปริญญา,5,5,0,,,,j,3.5979353999719024,None,,,,,0,5,5,5,16.39427910000086,,,,,,,,,,,,,,,,,,,,,,,,,16.378936999943107,16.39427910000086,16.39427910000086,16.39427910000086,16.39427910000086,16.39427910000086,16.860681499936618,16.893783499952406,19.994116499903612,j,3.5979353999719024,None,690624,001,2025-09-26_05h07.03.651,Priming_gender,,2025.1.1,60.06359534351802,2025-09-26 05h07.06.809918 +0700,
None,None,None,วรรณา,men.png,วรรณา,6,6,0,,,,k,0.5769855999387801,None,,,,,0,6,6,17,20.027220999938436,,,,,,,,,,,,,,,,,,,,,,,,,20.012261700001545,20.027220999938436,20.027220999938436,20.027220999938436,20.027220999938436,20.027220999938436,20.493673299904913,20.526846900000237,20.610506500001065,k,0.5769855999387801,None,690624,001,2025-09-26_05h07.03.651,Priming_gender,,2025.1.1,60.06359534351802,2025-09-26 05h07.06.809918 +0700,
None,None,None,สุนิสา,men.png,สุนิสา,7,7,0,,,,k,0.47062779997941107,None,,,,,0,7,7,18,20.643518499913625,,,,,,,,,,,,,,,,,,,,,,,,,20.62614449998364,20.643518499913625,20.643518499913625,20.643518499913625,20.643518499913625,20.643518499913625,21.110937099903822,21.160186099936254,21.127757599926554,k,0.47062779997941107,None,690624,001,2025-09-26_05h07.03.651,Priming_gender,,2025.1.1,60.06359534351802,2025-09-26 05h07.06.809918 +0700,
None,None,None,อาภรณ์,men.png,อาภรณ์,8,8,0,,,,j,0.33648419997189194,None,,,,,0,8,8,15,21.160186099936254,,,,,,,,,,,,,,,,,,,,,,,,,21.14815419993829,21.160186099936254,21.160186099936254,21.160186099936254,21.160186099936254,21.160186099936254,,,21.510420899954624,j,0.33648419997189194,None,690624,001,2025-09-26_05h07.03.651,Priming_gender,,2025.1.1,60.06359534351802,2025-09-26 05h07.06.809918 +0700,
ชัยวัฒน์,ศิริพร,None,ชัยวัฒน์,men.png,ชัยวัฒน์,9,9,0,,,,k,0.14054870000109076,None,,,,,0,9,9,4,21.543511900003068,,,,,,,,,,,,,,,,,,,,,,,,,21.530065099941567,21.543511900003068,21.543511900003068,21.543511900003068,21.543511900003068,21.543511900003068,,,21.693891100003384,k,0.14054870000109076,None,690624,001,2025-09-26_05h07.03.651,Priming_gender,,2025.1.1,60.06359534351802,2025-09-26 05h07.06.809918 +0700,
ศักดิ์สิทธิ์,สุนิสา,None,ศักดิ์สิทธิ์,men.png,ศักดิ์สิทธิ์,10,10,0,,,,j,0.062226700014434755,None,,,,,0,10,10,8,21.727124399971217,,,,,,,,,,,,,,,,,,,,,,,,,21.71304079995025,21.727124399971217,21.727124399971217,21.727124399971217,21.727124399971217,21.727124399971217,,,21.794237199937925,j,0.062226700014434755,None,690624,001,2025-09-26_05h07.03.651,Priming_gender,,2025.1.1,60.06359534351802,2025-09-26 05h07.06.809918 +0700,
None,None,None,None,women.png,วาสนา,11,11,0,,,,j,0.7795572000322863,None,,,,,0,11,11,32,21.827031199936755,,,,,,,,,,,,,,,,,,,,,,,,,21.81035939999856,21.827031199936755,21.827031199936755,21.827031199936755,21.827031199936755,21.827031199936755,22.29394639993552,22.327220699982718,22.610358199919574,j,0.7795572000322863,None,690624,001,2025-09-26_05h07.03.651,Priming_gender,,2025.1.1,60.06359534351802,2025-09-26 05h07.06.809918 +0700,
None,None,None,None,women.png,ศักดิ์สิทธิ์,12,12,0,,,,j,0.6533269999781623,None,,,,,0,12,12,28,22.643469899892807,,,,,,,,,,,,,,,,,,,,,,,,,22.627566599985585,22.643469899892807,22.643469899892807,22.643469899892807,22.643469899892807,22.643469899892807,23.110108399996534,23.143646799959242,23.31051069998648,j,0.6533269999781623,None,690624,001,2025-09-26_05h07.03.651,Priming_gender,,2025.1.1,60.06359534351802,2025-09-26 05h07.06.809918 +0700,
None,None,None,ปัทมา,men.png,ปัทมา,13,13,0,,,,j,0.5225431000581011,None,,,,,0,13,13,19,23.344203099957667,,,,,,,,,,,,,,,,,,,,,,,,,23.328391499933787,23.344203099957667,23.344203099957667,23.344203099957667,23.344203099957667,23.344203099957667,23.810492899967358,23.843893199926242,23.877206399920397,j,0.5225431000581011,None,690624,001,2025-09-26_05h07.03.651,Priming_gender,,2025.1.1,60.06359534351802,2025-09-26 05h07.06.809918 +0700,
None,None,None,None,women.png,พิมพ์ใจ,14,14,0,,,,j,0.5191975999623537,None,,,,,0,14,14,31,23.910134799894877,,,,,,,,,,,,,,,,,,,,,,,,,23.895257800002582,23.910134799894877,23.910134799894877,23.910134799894877,23.910134799894877,23.910134799894877,24.377549099968746,24.410036199958995,24.44373800000176,j,0.5191975999623537,None,690624,001,2025-09-26_05h07.03.651,Priming_gender,,2025.1.1,60.06359534351802,2025-09-26 05h07.06.809918 +0700,
วรพล,วรรณา,None,วรพล,men.png,วรพล,15,15,0,,,,j,0.4775026000570506,None,,,,,0,15,15,7,24.47710559994448,,,,,,,,,,,,,,,,,,,,,,,,,24.461691499920562,24.47710559994448,24.47710559994448,24.47710559994448,24.47710559994448,24.47710559994448,24.943903799983673,24.994151899940334,24.960792999947444,j,0.4775026000570506,None,690624,001,2025-09-26_05h07.03.651,Priming_gender,,2025.1.1,60.06359534351802,2025-09-26 05h07.06.809918 +0700,
None,None,None,None,women.png,พิสิฐ,16,16,0,,,,j,0.5524695999920368,None,,,,,0,16,16,29,24.994151899940334,,,,,,,,,,,,,,,,,,,,,,,,,24.97927929996513,24.994151899940334,24.994151899940334,24.994151899940334,24.994151899940334,24.994151899940334,25.46002989995759,25.593925099936314,25.560744599904865,j,0.5524695999920368,None,690624,001,2025-09-26_05h07.03.651,Priming_gender,,2025.1.1,60.06359534351802,2025-09-26 05h07.06.809918 +0700,
None,None,None,None,women.png,สุพัตรา,17,17,0,,,,k,0.5301878999453038,None,,,,,0,17,17,33,25.593925099936314,,,,,,,,,,,,,,,,,,,,,,,,,25.582769499975257,25.593925099936314,25.593925099936314,25.593925099936314,25.593925099936314,25.593925099936314,26.060494999983348,26.093787999940105,26.126988499891013,k,0.5301878999453038,None,690624,001,2025-09-26_05h07.03.651,Priming_gender,,2025.1.1,60.06359534351802,2025-09-26 05h07.06.809918 +0700,
None,None,None,None,women.png,วรพล,18,18,0,,,,k,0.5411346999462694,None,,,,,0,18,18,27,26.167598599917255,,,,,,,,,,,,,,,,,,,,,,,,,26.142758499947377,26.167598599917255,26.167598599917255,26.167598599917255,26.167598599917255,26.167598599917255,26.643357899971306,26.67679059994407,26.71039809996728,k,0.5411346999462694,None,690624,001,2025-09-26_05h07.03.651,Priming_gender,,2025.1.1,60.06359534351802,2025-09-26 05h07.06.809918 +0700,
None,None,None,None,women.png,ภูมิพัฒน์,19,19,0,,,,k,0.475558300036937,None,,,,,0,19,19,26,26.743647699942812,,,,,,,,,,,,,,,,,,,,,,,,,26.72650609991979,26.743647699942812,26.743647699942812,26.743647699942812,26.743647699942812,26.743647699942812,27.209917199914344,27.260165099985898,27.227062199963257,k,0.475558300036937,None,690624,001,2025-09-26_05h07.03.651,Priming_gender,,2025.1.1,60.06359534351802,2025-09-26 05h07.06.809918 +0700,
None,None,None,None,women.png,จิตติมา,20,20,0,,,,k,0.4162851000437513,None,,,,,0,20,20,36,27.260165099985898,,,,,,,,,,,,,,,,,,,,,,,,,27.242560799932107,27.260165099985898,27.260165099985898,27.260165099985898,27.260165099985898,27.260165099985898,,,27.67705929989461,k,0.4162851000437513,None,690624,001,2025-09-26_05h07.03.651,Priming_gender,,2025.1.1,60.06359534351802,2025-09-26 05h07.06.809918 +0700,
ธนพล,วาสนา,None,ธนพล,men.png,ธนพล,21,21,0,,,,k,0.37904140003956854,None,,,,,0,21,21,2,27.710174599895254,,,,,,,,,,,,,,,,,,,,,,,,,27.69132250000257,27.710174599895254,27.710174599895254,27.710174599895254,27.710174599895254,27.710174599895254,,,28.09378149989061,k,0.37904140003956854,None,690624,001,2025-09-26_05h07.03.651,Priming_gender,,2025.1.1,60.06359534351802,2025-09-26 05h07.06.809918 +0700,
None,None,None,None,women.png,อาภรณ์,22,22,0,,,,j,0.6676326000597328,None,,,,,0,22,22,35,28.12664649996441,,,,,,,,,,,,,,,,,,,,,,,,,28.11025459994562,28.12664649996441,28.12664649996441,28.12664649996441,28.12664649996441,28.12664649996441,28.593241999973543,28.626641599927098,28.810139899956994,j,0.6676326000597328,None,690624,001,2025-09-26_05h07.03.651,Priming_gender,,2025.1.1,60.06359534351802,2025-09-26 05h07.06.809918 +0700,
None,None,None,None,women.png,นเรศ,23,23,0,,,,j,0.4979723000433296,None,,,,,0,23,23,21,28.84354519995395,,,,,,,,,,,,,,,,,,,,,,,,,28.826633999939077,28.84354519995395,28.84354519995395,28.84354519995395,28.84354519995395,28.84354519995395,29.3098482999485,29.343214299995452,29.343477799906395,j,0.4979723000433296,None,690624,001,2025-09-26_05h07.03.651,Priming_gender,,2025.1.1,60.06359534351802,2025-09-26 05h07.06.809918 +0700,
พิสิฐ,ปัทมา,None,พิสิฐ,men.png,พิสิฐ,24,24,0,,,,j,0.4972027000039816,None,,,,,0,24,24,9,29.37679999996908,,,,,,,,,,,,,,,,,,,,,,,,,29.359565499937162,29.37679999996908,29.37679999996908,29.37679999996908,29.37679999996908,29.37679999996908,29.843088799971156,29.876627099933103,29.876897599897347,j,0.4972027000039816,None,690624,001,2025-09-26_05h07.03.651,Priming_gender,,2025.1.1,60.06359534351802,2025-09-26 05h07.06.809918 +0700,
None,None,None,None,women.png,ชัยวัฒน์,25,25,0,,,,j,0.5041717001004145,None,,,,,0,25,25,24,29.909975599963218,,,,,,,,,,,,,,,,,,,,,,,,,29.893774900003336,29.909975599963218,29.909975599963218,29.909975599963218,29.909975599963218,29.909975599963218,30.376651800004765,30.409901799983345,30.426920300000347,j,0.5041717001004145,None,690624,001,2025-09-26_05h07.03.651,Priming_gender,,2025.1.1,60.06359534351802,2025-09-26 05h07.06.809918 +0700,
None,None,None,พิมพ์ใจ,men.png,พิมพ์ใจ,26,26,0,,,,j,0.45694449997972697,None,,,,,0,26,26,11,30.45985349989496,,,,,,,,,,,,,,,,,,,,,,,,,30.4412470998941,30.45985349989496,30.45985349989496,30.45985349989496,30.45985349989496,30.45985349989496,30.926539499894716,,30.926795099978335,j,0.45694449997972697,None,690624,001,2025-09-26_05h07.03.651,Priming_gender,,2025.1.1,60.06359534351802,2025-09-26 05h07.06.809918 +0700,
None,None,None,None,women.png,ปริญญา,27,27,0,,,,k,0.5261445000069216,None,,,,,0,27,27,25,30.960220499895513,,,,,,,,,,,,,,,,,,,,,,,,,30.9414729999844,30.960220499895513,30.960220499895513,30.960220499895513,30.960220499895513,30.960220499895513,31.42651079990901,31.46009999990929,31.49378259992227,k,0.5261445000069216,None,690624,001,2025-09-26_05h07.03.651,Priming_gender,,2025.1.1,60.06359534351802,2025-09-26 05h07.06.809918 +0700,
None,None,None,None,women.png,ธนพล,28,28,0,,,,k,0.7474135000957176,None,,,,,0,28,28,22,31.526740500004962,,,,,,,,,,,,,,,,,,,,,,,,,31.50843269994948,31.526740500004962,31.526740500004962,31.526740500004962,31.526740500004962,31.526740500004962,31.99336619989481,32.02671719994396,32.2769522999879,k,0.7474135000957176,None,690624,001,2025-09-26_05h07.03.651,Priming_gender,,2025.1.1,60.06359534351802,2025-09-26 05h07.06.809918 +0700,
None,None,None,None,women.png,อรรถพล,29,29,0,,,,j,0.4740526999812573,None,,,,,0,29,29,23,32.31003029993735,,,,,,,,,,,,,,,,,,,,,,,,,32.29548169998452,32.31003029993735,32.31003029993735,32.31003029993735,32.31003029993735,32.31003029993735,32.77670049993321,32.82663279992994,32.793383099953644,j,0.4740526999812573,None,690624,001,2025-09-26_05h07.03.651,Priming_gender,,2025.1.1,60.06359534351802,2025-09-26 05h07.06.809918 +0700,
อรรถพล,สุพัตรา,None,อรรถพล,men.png,อรรถพล,30,30,0,,,,j,0.47491119999904186,None,,,,,0,30,30,3,32.82663279992994,,,,,,,,,,,,,,,,,,,,,,,,,32.80880060000345,32.82663279992994,32.82663279992994,32.82663279992994,32.82663279992994,32.82663279992994,33.29316789994482,33.343582100002095,33.310228399932384,j,0.47491119999904186,None,690624,001,2025-09-26_05h07.03.651,Priming_gender,,2025.1.1,60.06359534351802,2025-09-26 05h07.06.809918 +0700,
None,None,None,None,women.png,ปัทมา,31,31,0,,,,k,0.4977191999787465,None,,,,,0,31,31,39,33.343582100002095,,,,,,,,,,,,,,,,,,,,,,,,,33.32503619999625,33.343582100002095,33.343582100002095,33.343582100002095,33.343582100002095,33.343582100002095,33.810295399976894,33.843383400002494,33.84363889996894,k,0.4977191999787465,None,690624,001,2025-09-26_05h07.03.651,Priming_gender,,2025.1.1,60.06359534351802,2025-09-26 05h07.06.809918 +0700,
None,None,None,กาญจนา,men.png,กาญจนา,32,32,0,,,,j,0.5721840999322012,None,,,,,0,32,32,10,33.876835500006564,,,,,,,,,,,,,,,,,,,,,,,,,33.85890599992126,33.876835500006564,33.876835500006564,33.876835500006564,33.876835500006564,33.876835500006564,34.34342609997839,34.3765838999534,34.459999099955894,j,0.5721840999322012,None,690624,001,2025-09-26_05h07.03.651,Priming_gender,,2025.1.1,60.06359534351802,2025-09-26 05h07.06.809918 +0700,
None,None,None,None,women.png,วรรณา,33,33,0,,,,k,0.6909175999462605,None,,,,,0,33,33,37,34.493012199993245,,,,,,,,,,,,,,,,,,,,,,,,,34.474779499927536,34.493012199993245,34.493012199993245,34.493012199993245,34.493012199993245,34.493012199993245,34.959888299927115,34.99316129996441,35.19341139995959,k,0.6909175999462605,None,690624,001,2025-09-26_05h07.03.651,Priming_gender,,2025.1.1,60.06359534351802,2025-09-26 05h07.06.809918 +0700,
None,None,None,จิตติมา,men.png,จิตติมา,34,34,0,,,,j,0.4673382999608293,None,,,,,0,34,34,16,35.226556699955836,,,,,,,,,,,,,,,,,,,,,,,,,35.208300499944016,35.226556699955836,35.226556699955836,35.226556699955836,35.226556699955836,35.226556699955836,35.69333229993936,35.74340699997265,35.710185699979775,j,0.4673382999608293,None,690624,001,2025-09-26_05h07.03.651,Priming_gender,,2025.1.1,60.06359534351802,2025-09-26 05h07.06.809918 +0700,
ภูมิพัฒน์,จิตติมา,None,ภูมิพัฒน์,men.png,ภูมิพัฒน์,35,35,0,,,,k,0.36353760003112257,None,,,,,0,35,35,6,35.74340699997265,,,,,,,,,,,,,,,,,,,,,,,,,35.72703789989464,35.74340699997265,35.74340699997265,35.74340699997265,35.74340699997265,35.74340699997265,,,36.110337599995546,k,0.36353760003112257,None,690624,001,2025-09-26_05h07.03.651,Priming_gender,,2025.1.1,60.06359534351802,2025-09-26 05h07.06.809918 +0700,
None,None,None,None,women.png,ศิริพร,36,36,0,,,,k,0.2634063999867067,None,,,,,0,36,36,34,36.143228699918836,,,,,,,,,,,,,,,,,,,,,,,,,36.12539249996189,36.143228699918836,36.143228699918836,36.143228699918836,36.143228699918836,36.143228699918836,,,36.41015189990867,k,0.2634063999867067,None,690624,001,2025-09-26_05h07.03.651,Priming_gender,,2025.1.1,60.06359534351802,2025-09-26 05h07.06.809918 +0700,
None,None,None,None,women.png,กฤษณะ,37,37,0,,,,j,0.2403374999994412,None,,,,,0,37,37,20,36.443413399974816,,,,,,,,,,,,,,,,,,,,,,,,,36.42501419992186,36.443413399974816,36.443413399974816,36.443413399974816,36.443413399974816,36.443413399974816,,,36.69364359998144,j,0.2403374999994412,None,690624,001,2025-09-26_05h07.03.651,Priming_gender,,2025.1.1,60.06359534351802,2025-09-26 05h07.06.809918 +0700,
None,None,None,None,women.png,สุนิสา,38,38,0,,,,k,0.12245839997194707,None,,,,,0,38,38,38,36.72638859995641,,,,,,,,,,,,,,,,,,,,,,,,,36.71015489997808,36.72638859995641,36.72638859995641,36.72638859995641,36.72638859995641,36.72638859995641,,,36.86005229991861,k,0.12245839997194707,None,690624,001,2025-09-26_05h07.03.651,Priming_gender,,2025.1.1,60.06359534351802,2025-09-26 05h07.06.809918 +0700,
None,None,None,วาสนา,men.png,วาสนา,39,39,0,,,,j,1.7258749000029638,None,,,,,0,39,39,12,36.893051799968816,,,,,,,,,,,,,,,,,,,,,,,,,36.87467569997534,36.893051799968816,36.893051799968816,36.893051799968816,36.893051799968816,36.893051799968816,37.36004679999314,37.39330819994211,38.6265701999655,j,1.7258749000029638,None,690624,001,2025-09-26_05h07.03.651,Priming_gender,,2025.1.1,60.06359534351802,2025-09-26 05h07.06.809918 +0700,
