Male,Female,Image,Name,ImagePriming,NamePriming,thisN,thisTrialN,thisRepN,key_resp.keys,key_resp.rt,key_resp.duration,key_resp_3.keys,key_resp_3.rt,key_resp_3.duration,training.thisRepN,training.thisTrialN,training.thisN,training.thisIndex,priming.thisRepN,priming.thisTrialN,priming.thisN,priming.thisIndex,thisRow.t,notes,training_block.started,MAN.started,WOMAN.started,pic.started,key_resp.started,training_block.stopped,training.key_resp.keys,training.key_resp.rt,training.key_resp.duration,priming_block.started,MAN_3.started,WOMAN_3.started,name_2.started,key_resp_3.started,priming_block.stopped,priming.key_resp_3.keys,priming.key_resp_3.rt,priming.key_resp_3.duration,pic_2.started,name_2.stopped,participant,session,date,expName,expVersion,psychopyVersion,frameRate,expStart,
กฤษณะ,กาญจนา,men.png,กฤษณะ,men.png,กฤษณะ,0,0,0,j,1.5397905999561772,None,,,,0,0,0,0,,,,,0.037100200075656176,,0.02881420007906854,0.037100200075656176,0.037100200075656176,0.037100200075656176,0.037100200075656176,1.58267470006831,j,1.5397905999561772,None,,,,,,,,,,,,693796,001,2025-09-25_16h33.10.614,Priming_gender,,2025.1.1,59.98699479033564,2025-09-25 16h33.12.887281 +0700,
นเรศ,พิมพ์ใจ,women.png,นเรศ,men.png,นเรศ,1,1,0,j,0.4561147999484092,None,,,,0,1,1,1,,,,,1.6070973000023514,,1.6005875000264496,1.6070973000023514,1.6070973000023514,1.6070973000023514,1.6070973000023514,2.0639194000978023,j,0.4561147999484092,None,,,,,,,,,,,,693796,001,2025-09-25_16h33.10.614,Priming_gender,,2025.1.1,59.98699479033564,2025-09-25 16h33.12.887281 +0700,
นเรศ,พิมพ์ใจ,women.png,นเรศ,men.png,นเรศ,2,2,1,j,0.4039260999998078,None,,,,1,2,2,1,,,,,2.0873270999873057,,2.0812628000276163,2.0873270999873057,2.0873270999873057,2.0873270999873057,2.0873270999873057,2.4957053000107408,j,0.4039260999998078,None,,,,,,,,,,,,693796,001,2025-09-25_16h33.10.614,Priming_gender,,2025.1.1,59.98699479033564,2025-09-25 16h33.12.887281 +0700,
นเรศ,พิมพ์ใจ,women.png,นเรศ,men.png,นเรศ,3,3,2,j,0.20209210005123168,None,,,,2,3,3,1,,,,,2.5197104000253603,,2.513376499991864,2.5197104000253603,2.5197104000253603,2.5197104000253603,2.5197104000253603,2.728574400069192,j,0.20209210005123168,None,,,,,,,,,,,,693796,001,2025-09-25_16h33.10.614,Priming_gender,,2025.1.1,59.98699479033564,2025-09-25 16h33.12.887281 +0700,
นเรศ,พิมพ์ใจ,women.png,นเรศ,men.png,นเรศ,4,4,3,k,0.4879382000071928,None,,,,3,4,4,1,,,,,2.7511541000567377,,2.7466262000380084,2.7511541000567377,2.7511541000567377,2.7511541000567377,2.7511541000567377,3.2451916000572965,k,0.4879382000071928,None,,,,,,,,,,,,693796,001,2025-09-25_16h33.10.614,Priming_gender,,2025.1.1,59.98699479033564,2025-09-25 16h33.12.887281 +0700,
นเรศ,พิมพ์ใจ,women.png,นเรศ,men.png,นเรศ,5,5,4,k,0.38996990001760423,None,,,,4,5,5,1,,,,,3.2685567000880837,,3.263931900030002,3.2685567000880837,3.2685567000880837,3.2685567000880837,3.2685567000880837,3.6622371000703424,k,0.38996990001760423,None,,,,,,,,,,,,693796,001,2025-09-25_16h33.10.614,Priming_gender,,2025.1.1,59.98699479033564,2025-09-25 16h33.12.887281 +0700,
นเรศ,พิมพ์ใจ,women.png,นเรศ,men.png,นเรศ,6,6,5,k,0.16671230003703386,None,,,,5,6,6,1,,,,,3.683651000028476,,3.678603300009854,3.683651000028476,3.683651000028476,3.683651000028476,3.683651000028476,3.862130200024694,k,0.16671230003703386,None,,,,,,,,,,,,693796,001,2025-09-25_16h33.10.614,Priming_gender,,2025.1.1,59.98699479033564,2025-09-25 16h33.12.887281 +0700,
กฤษณะ,กาญจนา,men.png,กฤษณะ,men.png,กฤษณะ,7,7,1,j,0.261318999924697,None,,,,1,7,7,0,,,,,3.884415000095032,,3.879697800031863,3.884415000095032,3.884415000095032,3.884415000095032,3.884415000095032,4.162534700008109,j,0.261318999924697,None,,,,,,,,,,,,693796,001,2025-09-25_16h33.10.614,Priming_gender,,2025.1.1,59.98699479033564,2025-09-25 16h33.12.887281 +0700,
นเรศ,พิมพ์ใจ,women.png,นเรศ,men.png,นเรศ,8,8,6,j,0.12749410001561046,None,,,,6,8,8,1,,,,,4.185966000077315,,4.180957400007173,4.185966000077315,4.185966000077315,4.185966000077315,4.185966000077315,4.3292540000984445,j,0.12749410001561046,None,,,,,,,,,,,,693796,001,2025-09-25_16h33.10.614,Priming_gender,,2025.1.1,59.98699479033564,2025-09-25 16h33.12.887281 +0700,
กฤษณะ,กาญจนา,men.png,กฤษณะ,men.png,กฤษณะ,9,9,2,j,0.0926260999403894,None,,,,2,9,9,0,,,,,4.352127299993299,,4.347441600053571,4.352127299993299,4.352127299993299,4.352127299993299,4.352127299993299,4.446230200002901,j,0.0926260999403894,None,,,,,,,,,,,,693796,001,2025-09-25_16h33.10.614,Priming_gender,,2025.1.1,59.98699479033564,2025-09-25 16h33.12.887281 +0700,
นเรศ,พิมพ์ใจ,women.png,นเรศ,men.png,นเรศ,10,10,7,k,0.12658539996482432,None,,,,7,10,10,1,,,,,4.469531600014307,,4.464740000083111,4.469531600014307,4.469531600014307,4.469531600014307,4.469531600014307,4.612771600019187,k,0.12658539996482432,None,,,,,,,,,,,,693796,001,2025-09-25_16h33.10.614,Priming_gender,,2025.1.1,59.98699479033564,2025-09-25 16h33.12.887281 +0700,
นเรศ,พิมพ์ใจ,women.png,นเรศ,men.png,นเรศ,11,11,8,j,0.07536040002014488,None,,,,8,11,11,1,,,,,4.635261500021443,,4.63061520003248,4.635261500021443,4.635261500021443,4.635261500021443,4.635261500021443,4.712578700040467,j,0.07536040002014488,None,,,,,,,,,,,,693796,001,2025-09-25_16h33.10.614,Priming_gender,,2025.1.1,59.98699479033564,2025-09-25 16h33.12.887281 +0700,
กฤษณะ,กาญจนา,men.png,กฤษณะ,men.png,กฤษณะ,12,12,3,k,0.10150879994034767,None,,,,3,12,12,0,,,,,4.73713060002774,,4.730793000082485,4.73713060002774,4.73713060002774,4.73713060002774,4.73713060002774,4.845456900075078,k,0.10150879994034767,None,,,,,,,,,,,,693796,001,2025-09-25_16h33.10.614,Priming_gender,,2025.1.1,59.98699479033564,2025-09-25 16h33.12.887281 +0700,
นเรศ,พิมพ์ใจ,women.png,นเรศ,men.png,นเรศ,13,13,9,j,0.06808709993492812,None,,,,9,13,13,1,,,,,4.869449799996801,,4.8635326999938115,4.869449799996801,4.869449799996801,4.869449799996801,4.869449799996801,4.9454608000814915,j,0.06808709993492812,None,,,,,,,,,,,,693796,001,2025-09-25_16h33.10.614,Priming_gender,,2025.1.1,59.98699479033564,2025-09-25 16h33.12.887281 +0700,
กฤษณะ,กาญจนา,men.png,กฤษณะ,men.png,กฤษณะ,14,14,4,k,0.1005942999618128,None,,,,4,14,14,0,,,,,4.967632499989122,,4.96288710006047,4.967632499989122,4.967632499989122,4.967632499989122,4.967632499989122,5.079652699991129,k,0.1005942999618128,None,,,,,,,,,,,,693796,001,2025-09-25_16h33.10.614,Priming_gender,,2025.1.1,59.98699479033564,2025-09-25 16h33.12.887281 +0700,
กฤษณะ,กาญจนา,men.png,กฤษณะ,men.png,กฤษณะ,15,15,5,j,0.0551818999228999,None,,,,5,15,15,0,,,,,5.103853800101206,,5.099060600041412,5.103853800101206,5.103853800101206,5.103853800101206,5.103853800101206,5.162480000057258,j,0.0551818999228999,None,,,,,,,,,,,,693796,001,2025-09-25_16h33.10.614,Priming_gender,,2025.1.1,59.98699479033564,2025-09-25 16h33.12.887281 +0700,
กฤษณะ,กาญจนา,men.png,กฤษณะ,men.png,กฤษณะ,16,16,6,k,0.10296809999272227,None,,,,6,16,16,0,,,,,5.185072000022046,,5.180494400090538,5.185072000022046,5.185072000022046,5.185072000022046,5.185072000022046,5.2952312000561506,k,0.10296809999272227,None,,,,,,,,,,,,693796,001,2025-09-25_16h33.10.614,Priming_gender,,2025.1.1,59.98699479033564,2025-09-25 16h33.12.887281 +0700,
กฤษณะ,กาญจนา,men.png,กฤษณะ,men.png,กฤษณะ,17,17,7,j,0.02269090001937002,None,,,,7,17,17,0,,,,,5.318319300073199,,5.313270900049247,5.318319300073199,5.318319300073199,5.318319300073199,5.318319300073199,5.345739200012758,j,0.02269090001937002,None,,,,,,,,,,,,693796,001,2025-09-25_16h33.10.614,Priming_gender,,2025.1.1,59.98699479033564,2025-09-25 16h33.12.887281 +0700,
นเรศ,พิมพ์ใจ,women.png,นเรศ,men.png,นเรศ,18,18,10,k,0.10888439998961985,None,,,,10,18,18,1,,,,,5.36671800003387,,5.3617157000117,5.36671800003387,5.36671800003387,5.36671800003387,5.36671800003387,5.478321900009178,k,0.10888439998961985,None,,,,,,,,,,,,693796,001,2025-09-25_16h33.10.614,Priming_gender,,2025.1.1,59.98699479033564,2025-09-25 16h33.12.887281 +0700,
กฤษณะ,กาญจนา,men.png,กฤษณะ,men.png,กฤษณะ,19,19,8,j,0.03352389996871352,None,,,,8,19,19,0,,,,,5.501141800079495,,5.495939600048587,5.501141800079495,5.501141800079495,5.501141800079495,5.501141800079495,5.546065700007603,j,0.03352389996871352,None,,,,,,,,,,,,693796,001,2025-09-25_16h33.10.614,Priming_gender,,2025.1.1,59.98699479033564,2025-09-25 16h33.12.887281 +0700,
กฤษณะ,กาญจนา,men.png,กฤษณะ,men.png,กฤษณะ,20,20,9,k,0.0817294999724254,None,,,,9,20,20,0,,,,,5.569181700004265,,5.563885200070217,5.569181700004265,5.569181700004265,5.569181700004265,5.569181700004265,5.6620907000033185,k,0.0817294999724254,None,,,,,,,,,,,,693796,001,2025-09-25_16h33.10.614,Priming_gender,,2025.1.1,59.98699479033564,2025-09-25 16h33.12.887281 +0700,
นเรศ,พิมพ์ใจ,women.png,นเรศ,men.png,นเรศ,21,21,11,j,0.011200399952940643,None,,,,11,21,21,1,,,,,5.685926500009373,,5.679988600080833,5.685926500009373,5.685926500009373,5.685926500009373,5.685926500009373,5.712402300094254,j,0.011200399952940643,None,,,,,,,,,,,,693796,001,2025-09-25_16h33.10.614,Priming_gender,,2025.1.1,59.98699479033564,2025-09-25 16h33.12.887281 +0700,
กฤษณะ,กาญจนา,men.png,กฤษณะ,men.png,กฤษณะ,22,22,10,j,0.11079730000346899,None,,,,10,22,22,0,,,,,5.735894600045867,,5.7302251000655815,5.735894600045867,5.735894600045867,5.735894600045867,5.735894600045867,5.862227000063285,j,0.11079730000346899,None,,,,,,,,,,,,693796,001,2025-09-25_16h33.10.614,Priming_gender,,2025.1.1,59.98699479033564,2025-09-25 16h33.12.887281 +0700,
นเรศ,พิมพ์ใจ,women.png,นเรศ,men.png,นเรศ,23,23,12,j,0.09372350003104657,None,,,,12,23,23,1,,,,,5.883635300095193,,5.8788111000321805,5.883635300095193,5.883635300095193,5.883635300095193,5.883635300095193,5.978574600070715,j,0.09372350003104657,None,,,,,,,,,,,,693796,001,2025-09-25_16h33.10.614,Priming_gender,,2025.1.1,59.98699479033564,2025-09-25 16h33.12.887281 +0700,
นเรศ,พิมพ์ใจ,women.png,นเรศ,men.png,นเรศ,24,24,13,j,0.0913088999222964,None,,,,13,24,24,1,,,,,6.00049750006292,,5.995498300064355,6.00049750006292,6.00049750006292,6.00049750006292,6.00049750006292,6.095156499999575,j,0.0913088999222964,None,,,,,,,,,,,,693796,001,2025-09-25_16h33.10.614,Priming_gender,,2025.1.1,59.98699479033564,2025-09-25 16h33.12.887281 +0700,
กฤษณะ,กาญจนา,men.png,กฤษณะ,men.png,กฤษณะ,25,25,11,j,0.08538000006228685,None,,,,11,25,25,0,,,,,6.117373200017028,,6.111869600019418,6.117373200017028,6.117373200017028,6.117373200017028,6.117373200017028,6.2118827000958845,j,0.08538000006228685,None,,,,,,,,,,,,693796,001,2025-09-25_16h33.10.614,Priming_gender,,2025.1.1,59.98699479033564,2025-09-25 16h33.12.887281 +0700,
กฤษณะ,กาญจนา,men.png,กฤษณะ,men.png,กฤษณะ,26,26,12,j,0.1084086000919342,None,,,,12,26,26,0,,,,,6.2347588000120595,,6.229614700074308,6.2347588000120595,6.2347588000120595,6.2347588000120595,6.2347588000120595,6.345579000073485,j,0.1084086000919342,None,,,,,,,,,,,,693796,001,2025-09-25_16h33.10.614,Priming_gender,,2025.1.1,59.98699479033564,2025-09-25 16h33.12.887281 +0700,
นเรศ,พิมพ์ใจ,women.png,นเรศ,men.png,นเรศ,27,27,14,j,0.0992858000099659,None,,,,14,27,27,1,,,,,6.366516200010665,,6.361360999988392,6.366516200010665,6.366516200010665,6.366516200010665,6.366516200010665,6.478849600069225,j,0.0992858000099659,None,,,,,,,,,,,,693796,001,2025-09-25_16h33.10.614,Priming_gender,,2025.1.1,59.98699479033564,2025-09-25 16h33.12.887281 +0700,
กฤษณะ,กาญจนา,men.png,กฤษณะ,men.png,กฤษณะ,28,28,13,j,0.10597650008276105,None,,,,13,28,28,0,,,,,6.50067370000761,,6.495753800030798,6.50067370000761,6.50067370000761,6.50067370000761,6.50067370000761,6.614117100019939,j,0.10597650008276105,None,,,,,,,,,,,,693796,001,2025-09-25_16h33.10.614,Priming_gender,,2025.1.1,59.98699479033564,2025-09-25 16h33.12.887281 +0700,
กฤษณะ,กาญจนา,men.png,กฤษณะ,men.png,กฤษณะ,29,29,14,j,0.19014940003398806,None,,,,14,29,29,0,,,,,6.635722000035457,,6.630707000032999,6.635722000035457,6.635722000035457,6.635722000035457,6.635722000035457,6.828426500083879,j,0.19014940003398806,None,,,,,,,,,,,,693796,001,2025-09-25_16h33.10.614,Priming_gender,,2025.1.1,59.98699479033564,2025-09-25 16h33.12.887281 +0700,
นเรศ,พิมพ์ใจ,women.png,นเรศ,men.png,นเรศ,30,30,15,j,0.1170740999514237,None,,,,15,30,30,1,,,,,6.850628999993205,,6.845627400092781,6.850628999993205,6.850628999993205,6.850628999993205,6.850628999993205,6.97847410000395,j,0.1170740999514237,None,,,,,,,,,,,,693796,001,2025-09-25_16h33.10.614,Priming_gender,,2025.1.1,59.98699479033564,2025-09-25 16h33.12.887281 +0700,
นเรศ,พิมพ์ใจ,women.png,นเรศ,men.png,นเรศ,31,31,16,j,0.10973669996019453,None,,,,16,31,31,1,,,,,7.001346900011413,,6.996265100082383,7.001346900011413,7.001346900011413,7.001346900011413,7.001346900011413,7.111797500052489,j,0.10973669996019453,None,,,,,,,,,,,,693796,001,2025-09-25_16h33.10.614,Priming_gender,,2025.1.1,59.98699479033564,2025-09-25 16h33.12.887281 +0700,
นเรศ,พิมพ์ใจ,women.png,นเรศ,men.png,นเรศ,32,32,17,j,0.1573979000095278,None,,,,17,32,32,1,,,,,7.1347981001017615,,7.1296404000604525,7.1347981001017615,7.1347981001017615,7.1347981001017615,7.1347981001017615,7.295685400022194,j,0.1573979000095278,None,,,,,,,,,,,,693796,001,2025-09-25_16h33.10.614,Priming_gender,,2025.1.1,59.98699479033564,2025-09-25 16h33.12.887281 +0700,
กฤษณะ,กาญจนา,men.png,กฤษณะ,men.png,กฤษณะ,33,33,15,j,0.12083809997420758,None,,,,15,33,33,0,,,,,7.319037700071931,,7.313368100090884,7.319037700071931,7.319037700071931,7.319037700071931,7.319037700071931,7.445080700097606,j,0.12083809997420758,None,,,,,,,,,,,,693796,001,2025-09-25_16h33.10.614,Priming_gender,,2025.1.1,59.98699479033564,2025-09-25 16h33.12.887281 +0700,
กฤษณะ,กาญจนา,men.png,กฤษณะ,men.png,กฤษณะ,34,34,16,j,0.09531609993427992,None,,,,16,34,34,0,,,,,7.468229599995539,,7.46341080009006,7.468229599995539,7.468229599995539,7.468229599995539,7.468229599995539,7.578599500004202,j,0.09531609993427992,None,,,,,,,,,,,,693796,001,2025-09-25_16h33.10.614,Priming_gender,,2025.1.1,59.98699479033564,2025-09-25 16h33.12.887281 +0700,
กฤษณะ,กาญจนา,men.png,กฤษณะ,men.png,กฤษณะ,35,35,17,k,0.1607643999159336,None,,,,17,35,35,0,,,,,7.601519600022584,,7.596513800090179,7.601519600022584,7.601519600022584,7.601519600022584,7.601519600022584,7.779152800096199,k,0.1607643999159336,None,,,,,,,,,,,,693796,001,2025-09-25_16h33.10.614,Priming_gender,,2025.1.1,59.98699479033564,2025-09-25 16h33.12.887281 +0700,
กฤษณะ,กาญจนา,men.png,กฤษณะ,men.png,กฤษณะ,36,36,18,k,0.09606239991262555,None,,,,18,36,36,0,,,,,7.801895200042054,,7.796935399994254,7.801895200042054,7.801895200042054,7.801895200042054,7.801895200042054,7.912187800044194,k,0.09606239991262555,None,,,,,,,,,,,,693796,001,2025-09-25_16h33.10.614,Priming_gender,,2025.1.1,59.98699479033564,2025-09-25 16h33.12.887281 +0700,
นเรศ,พิมพ์ใจ,women.png,นเรศ,men.png,นเรศ,37,37,18,k,0.10268080001696944,None,,,,18,37,37,1,,,,,7.934975200099871,,7.93001050001476,7.934975200099871,7.934975200099871,7.934975200099871,7.934975200099871,8.045502800028771,k,0.10268080001696944,None,,,,,,,,,,,,693796,001,2025-09-25_16h33.10.614,Priming_gender,,2025.1.1,59.98699479033564,2025-09-25 16h33.12.887281 +0700,
กฤษณะ,กาญจนา,men.png,กฤษณะ,men.png,กฤษณะ,38,38,19,k,0.1261029999004677,None,,,,19,38,38,0,,,,,8.06890770001337,,8.06345630006399,8.06890770001337,8.06890770001337,8.06890770001337,8.06890770001337,8.195992000051774,k,0.1261029999004677,None,,,,,,,,,,,,693796,001,2025-09-25_16h33.10.614,Priming_gender,,2025.1.1,59.98699479033564,2025-09-25 16h33.12.887281 +0700,
นเรศ,พิมพ์ใจ,women.png,นเรศ,men.png,นเรศ,39,39,19,k,0.1318514000158757,None,,,,19,39,39,1,,,,,8.218903100001626,,8.214314400102012,8.218903100001626,8.218903100001626,8.218903100001626,8.218903100001626,8.361898700008169,k,0.1318514000158757,None,,,,,,,,,,,,693796,001,2025-09-25_16h33.10.614,Priming_gender,,2025.1.1,59.98699479033564,2025-09-25 16h33.12.887281 +0700,
อรรถพล,สุพัตรา,None,อรรถพล,men.png,อรรถพล,0,0,0,,,,k,0.10847079998347908,None,,,,,0,0,0,3,8.399788600043394,,,,,,,,,,,8.389144700020552,8.399788600043394,8.399788600043394,8.399788600043394,8.399788600043394,8.512661300017498,k,0.10847079998347908,None,,,693796,001,2025-09-25_16h33.10.614,Priming_gender,,2025.1.1,59.98699479033564,2025-09-25 16h33.12.887281 +0700,
กฤษณะ,กาญจนา,men.png,กฤษณะ,men.png,กฤษณะ,1,1,0,,,,k,0.1031620999565348,None,,,,,0,1,1,0,8.54474610008765,,,,,,,,,,,8.537192600080743,8.54474610008765,8.54474610008765,8.54474610008765,8.54474610008765,8.66197400004603,k,0.1031620999565348,None,,,693796,001,2025-09-25_16h33.10.614,Priming_gender,,2025.1.1,59.98699479033564,2025-09-25 16h33.12.887281 +0700,
None,None,None,None,women.png,วรรณา,2,2,0,,,,k,0.30468800000380725,None,,,,,0,2,2,37,8.689246700028889,,,,,,,,,,,8.681954300031066,8.689246700028889,8.689246700028889,8.689246700028889,8.689246700028889,8.996780200046487,k,0.30468800000380725,None,,,693796,001,2025-09-25_16h33.10.614,Priming_gender,,2025.1.1,59.98699479033564,2025-09-25 16h33.12.887281 +0700,
None,None,None,วาสนา,men.png,วาสนา,3,3,0,,,,k,0.11448780004866421,None,,,,,0,3,3,12,9.025716900010593,,,,,,,,,,,9.018198100035079,9.025716900010593,9.025716900010593,9.025716900010593,9.025716900010593,9.145523400045931,k,0.11448780004866421,None,,,693796,001,2025-09-25_16h33.10.614,Priming_gender,,2025.1.1,59.98699479033564,2025-09-25 16h33.12.887281 +0700,
None,None,None,None,women.png,ธนพล,4,4,0,,,,k,0.09819659998174757,None,,,,,0,4,4,22,9.171236800029874,,,,,,,,,,,9.163836500025354,9.171236800029874,9.171236800029874,9.171236800029874,9.171236800029874,9.279396300087683,k,0.09819659998174757,None,,,693796,001,2025-09-25_16h33.10.614,Priming_gender,,2025.1.1,59.98699479033564,2025-09-25 16h33.12.887281 +0700,
None,None,None,กาญจนา,men.png,กาญจนา,5,5,0,,,,j,0.8903140000766143,None,,,,,0,5,5,10,9.307716500014067,,,,,,,,,,,9.300087700015865,9.307716500014067,9.307716500014067,9.307716500014067,9.307716500014067,10.213350200094283,j,0.8903140000766143,None,9.77971710008569,9.812816200079396,693796,001,2025-09-25_16h33.10.614,Priming_gender,,2025.1.1,59.98699479033564,2025-09-25 16h33.12.887281 +0700,
None,None,None,สุนิสา,men.png,สุนิสา,6,6,0,,,,j,0.643995099933818,None,,,,,0,6,6,18,10.242584499996156,,,,,,,,,,,10.234731800039299,10.242584499996156,10.242584499996156,10.242584499996156,10.242584499996156,10.896923299995251,j,0.643995099933818,None,10.712353800074197,10.74612910009455,693796,001,2025-09-25_16h33.10.614,Priming_gender,,2025.1.1,59.98699479033564,2025-09-25 16h33.12.887281 +0700,
None,None,None,None,women.png,ภูมิพัฒน์,7,7,0,,,,k,2.173412299947813,None,,,,,0,7,7,26,10.929284800076857,,,,,,,,,,,10.921781100099906,10.929284800076857,10.929284800076857,10.929284800076857,10.929284800076857,13.112568300100975,k,2.173412299947813,None,11.413209600024857,11.429173800046556,693796,001,2025-09-25_16h33.10.614,Priming_gender,,2025.1.1,59.98699479033564,2025-09-25 16h33.12.887281 +0700,
None,None,None,None,women.png,กฤษณะ,8,8,0,,,,k,0.8708536999765784,None,,,,,0,8,8,20,13.137833500048146,,,,,,,,,,,13.131538500078022,13.137833500048146,13.137833500048146,13.137833500048146,13.137833500048146,14.012013100087643,k,0.8708536999765784,None,13.613214200013317,13.645353200030513,693796,001,2025-09-25_16h33.10.614,Priming_gender,,2025.1.1,59.98699479033564,2025-09-25 16h33.12.887281 +0700,
None,None,None,สุพัตรา,men.png,สุพัตรา,9,9,0,,,,k,0.7133884000359103,None,,,,,0,9,9,13,14.038117000018246,,,,,,,,,,,14.03070960007608,14.038117000018246,14.038117000018246,14.038117000018246,14.038117000018246,14.761989700025879,k,0.7133884000359103,None,14.512550699990243,14.54516340000555,693796,001,2025-09-25_16h33.10.614,Priming_gender,,2025.1.1,59.98699479033564,2025-09-25 16h33.12.887281 +0700,
None,None,None,None,women.png,อรรถพล,10,10,0,,,,,,,,,,,0,10,10,23,14.789450200041756,,,,,,,,,,,14.779707900015637,14.789450200041756,14.789450200041756,14.789450200041756,14.789450200041756,,,,,15.261739600100555,15.295752000063658,,,,,,,,,
