Male,Female,Image,Name,ImagePriming,NamePriming,thisN,thisTrialN,thisRepN,key_resp.keys,key_resp.rt,key_resp.duration,training.thisRepN,training.thisTrialN,training.thisN,training.thisIndex,thisRow.t,notes,training_block.started,MAN.started,WOMAN.started,pic.started,key_resp.started,training_block.stopped,training.key_resp.keys,training.key_resp.rt,training.key_resp.duration,feedback_training.started,feedback_training.stopped,participant,session,date,expName,expVersion,psychopyVersion,frameRate,expStart,
กฤษณะ,กาญจนา,men.png,กฤษณะ,men.png,กฤษณะ,0,0,0,j,1.1033208000008017,None,0,0,0,0,0.04680399992503226,,0.03984639991540462,0.04680399992503226,0.04680399992503226,0.04680399992503226,0.04680399992503226,1.1620994999539107,j,1.1033208000008017,None,1.1621892999392003,1.1622869999846444,731253,001,2025-09-25_16h44.41.415,Priming_gender,,2025.1.1,59.95473419394903,2025-09-25 16h44.44.449250 +0700,
กฤษณะ,กาญจนา,men.png,กฤษณะ,men.png,กฤษณะ,1,1,1,j,1.155253199976869,None,1,1,1,0,1.1872516999719664,,1.1800236999988556,1.1872516999719664,1.1872516999719664,1.1872516999719664,1.1872516999719664,2.358059099991806,j,1.155253199976869,None,2.358143499935977,2.3582369999494404,731253,001,2025-09-25_16h44.41.415,Priming_gender,,2025.1.1,59.95473419394903,2025-09-25 16h44.44.449250 +0700,
นเรศ,พิมพ์ใจ,women.png,นเรศ,men.png,นเรศ,2,2,0,j,1.1735339999431744,None,0,2,2,1,2.393541599973105,,2.379612599965185,2.393541599973105,2.393541599973105,2.393541599973105,2.393541599973105,3.5741822000127286,j,1.1735339999431744,None,3.574235999956727,3.5742816999554634,731253,001,2025-09-25_16h44.41.415,Priming_gender,,2025.1.1,59.95473419394903,2025-09-25 16h44.44.449250 +0700,
นเรศ,พิมพ์ใจ,women.png,นเรศ,men.png,นเรศ,3,3,1,k,0.4969770999159664,None,1,3,3,1,3.61052549991291,,3.5988486999413,3.61052549991291,3.61052549991291,3.61052549991291,3.61052549991291,4.108515599975362,k,0.4969770999159664,None,4.108593999990262,4.591698699980043,731253,001,2025-09-25_16h44.41.415,Priming_gender,,2025.1.1,59.95473419394903,2025-09-25 16h44.44.449250 +0700,
กฤษณะ,กาญจนา,men.png,กฤษณะ,men.png,กฤษณะ,4,4,2,k,0.6825173000106588,None,2,4,4,0,4.6150692999362946,,4.610208599944599,4.6150692999362946,4.6150692999362946,4.6150692999362946,4.6150692999362946,5.3076151999412104,k,0.6825173000106588,None,5.307700900011696,5.790906499954872,731253,001,2025-09-25_16h44.41.415,Priming_gender,,2025.1.1,59.95473419394903,2025-09-25 16h44.44.449250 +0700,
กฤษณะ,กาญจนา,men.png,กฤษณะ,men.png,กฤษณะ,5,5,3,k,1.9157175000291318,None,3,5,5,0,5.814223499968648,,5.809099599951878,5.814223499968648,5.814223499968648,5.814223499968648,5.814223499968648,7.740904700011015,k,1.9157175000291318,None,7.740994799998589,8.224492499954067,731253,001,2025-09-25_16h44.41.415,Priming_gender,,2025.1.1,59.95473419394903,2025-09-25 16h44.44.449250 +0700,
นเรศ,พิมพ์ใจ,women.png,นเรศ,men.png,นเรศ,6,6,2,j,0.24886299995705485,None,2,6,6,1,8.248939599958248,,8.243202799931169,8.248939599958248,8.248939599958248,8.248939599958248,8.248939599958248,8.507659900002182,j,0.24886299995705485,None,8.507743999944068,8.507832699920982,731253,001,2025-09-25_16h44.41.415,Priming_gender,,2025.1.1,59.95473419394903,2025-09-25 16h44.44.449250 +0700,
นเรศ,พิมพ์ใจ,women.png,นเรศ,men.png,นเรศ,7,7,3,j,1.2329749000491574,None,3,7,7,1,8.531571200001054,,8.526043599937111,8.531571200001054,8.531571200001054,8.531571200001054,8.531571200001054,9.774337399983779,j,1.2329749000491574,None,9.774422699934803,9.774513099924661,731253,001,2025-09-25_16h44.41.415,Priming_gender,,2025.1.1,59.95473419394903,2025-09-25 16h44.44.449250 +0700,
นเรศ,พิมพ์ใจ,women.png,นเรศ,men.png,นเรศ,8,8,4,j,0.4853694000048563,None,4,8,8,1,9.80051609990187,,9.793188099982217,9.80051609990187,9.80051609990187,9.80051609990187,9.80051609990187,10.290692399954423,j,0.4853694000048563,None,10.290777699905448,10.29086870001629,731253,001,2025-09-25_16h44.41.415,Priming_gender,,2025.1.1,59.95473419394903,2025-09-25 16h44.44.449250 +0700,
นเรศ,พิมพ์ใจ,women.png,นเรศ,men.png,นเรศ,9,9,5,k,0.2541932000312954,None,5,9,9,1,10.318251699907705,,10.31326490000356,10.318251699907705,10.318251699907705,10.318251699907705,10.318251699907705,10.57411049993243,k,0.2541932000312954,None,10.57419720001053,11.057594500016421,731253,001,2025-09-25_16h44.41.415,Priming_gender,,2025.1.1,59.95473419394903,2025-09-25 16h44.44.449250 +0700,
กฤษณะ,กาญจนา,men.png,กฤษณะ,men.png,กฤษณะ,10,10,4,k,0.20207640004809946,None,4,10,10,0,11.081033099908382,,11.076045299996622,11.081033099908382,11.081033099908382,11.081033099908382,11.081033099908382,11.290770099963993,k,0.20207640004809946,None,11.290821500006132,11.773425299907103,731253,001,2025-09-25_16h44.41.415,Priming_gender,,2025.1.1,59.95473419394903,2025-09-25 16h44.44.449250 +0700,
กฤษณะ,กาญจนา,men.png,กฤษณะ,men.png,กฤษณะ,11,11,5,k,0.06122989999130368,None,5,11,11,0,11.796129699912854,,11.791378299938515,11.796129699912854,11.796129699912854,11.796129699912854,11.796129699912854,11.87378349993378,k,0.06122989999130368,None,11.873829699936323,12.357160799903795,731253,001,2025-09-25_16h44.41.415,Priming_gender,,2025.1.1,59.95473419394903,2025-09-25 16h44.44.449250 +0700,
นเรศ,พิมพ์ใจ,women.png,นเรศ,men.png,นเรศ,12,12,6,j,0.12568999989889562,None,6,12,12,1,12.379825499956496,,12.375006499933079,12.379825499956496,12.379825499956496,12.379825499956496,12.379825499956496,12.507597899995744,j,0.12568999989889562,None,12.507647699909285,12.507691500009969,731253,001,2025-09-25_16h44.41.415,Priming_gender,,2025.1.1,59.95473419394903,2025-09-25 16h44.44.449250 +0700,
นเรศ,พิมพ์ใจ,women.png,นเรศ,men.png,นเรศ,13,13,7,j,0.1424034999217838,None,7,13,13,1,12.530367699917406,,12.52508689998649,12.530367699917406,12.530367699917406,12.530367699917406,12.530367699917406,12.673610299942084,j,0.1424034999217838,None,12.673661899985746,12.673753599985503,731253,001,2025-09-25_16h44.41.415,Priming_gender,,2025.1.1,59.95473419394903,2025-09-25 16h44.44.449250 +0700,
นเรศ,พิมพ์ใจ,women.png,นเรศ,men.png,นเรศ,14,14,8,j,0.1320494000101462,None,8,14,14,1,12.697881400003098,,12.691915999981575,12.697881400003098,12.697881400003098,12.697881400003098,12.697881400003098,12.839844799949788,j,0.1320494000101462,None,12.839890499948524,12.839927599998191,731253,001,2025-09-25_16h44.41.415,Priming_gender,,2025.1.1,59.95473419394903,2025-09-25 16h44.44.449250 +0700,
นเรศ,พิมพ์ใจ,women.png,นเรศ,men.png,นเรศ,15,15,9,j,0.10730510007124394,None,9,15,15,1,12.860614400007762,,12.855553500005044,12.860614400007762,12.860614400007762,12.860614400007762,12.860614400007762,12.973985299933702,j,0.10730510007124394,None,12.974034399958327,12.974076999933459,731253,001,2025-09-25_16h44.41.415,Priming_gender,,2025.1.1,59.95473419394903,2025-09-25 16h44.44.449250 +0700,
นเรศ,พิมพ์ใจ,women.png,นเรศ,men.png,นเรศ,16,16,10,j,0.0970745999366045,None,10,16,16,1,12.997804199927486,,12.992405699915253,12.997804199927486,12.997804199927486,12.997804199927486,12.997804199927486,13.107695100014098,j,0.0970745999366045,None,13.10778159997426,13.107887899968773,731253,001,2025-09-25_16h44.41.415,Priming_gender,,2025.1.1,59.95473419394903,2025-09-25 16h44.44.449250 +0700,
กฤษณะ,กาญจนา,men.png,กฤษณะ,men.png,กฤษณะ,17,17,6,j,0.08895110001321882,None,6,17,17,0,13.131207099999301,,13.126009800005704,13.131207099999301,13.131207099999301,13.131207099999301,13.131207099999301,13.224100499995984,j,0.08895110001321882,None,13.22418999997899,13.224287999910302,731253,001,2025-09-25_16h44.41.415,Priming_gender,,2025.1.1,59.95473419394903,2025-09-25 16h44.44.449250 +0700,
กฤษณะ,กาญจนา,men.png,กฤษณะ,men.png,กฤษณะ,18,18,7,k,0.21695579995866865,None,7,18,18,0,13.24786070000846,,13.242398799979128,13.24786070000846,13.24786070000846,13.24786070000846,13.24786070000846,13.474211099906825,k,0.21695579995866865,None,13.474259899929166,13.957049599965103,731253,001,2025-09-25_16h44.41.415,Priming_gender,,2025.1.1,59.95473419394903,2025-09-25 16h44.44.449250 +0700,
กฤษณะ,กาญจนา,men.png,กฤษณะ,men.png,กฤษณะ,19,19,8,k,0.06791670003440231,None,8,19,19,0,13.979203999973834,,13.973496899940073,13.979203999973834,13.979203999973834,13.979203999973834,13.979203999973834,14.057531099999323,k,0.06791670003440231,None,14.057582899928093,14.540345199988224,731253,001,2025-09-25_16h44.41.415,Priming_gender,,2025.1.1,59.95473419394903,2025-09-25 16h44.44.449250 +0700,
กฤษณะ,กาญจนา,men.png,กฤษณะ,men.png,กฤษณะ,20,20,9,k,0.44414989999495447,None,9,20,20,0,14.563826899975538,,14.558708399999887,14.563826899975538,14.563826899975538,14.563826899975538,14.563826899975538,15.023672599927522,k,0.44414989999495447,None,15.02372940001078,15.506824299925938,731253,001,2025-09-25_16h44.41.415,Priming_gender,,2025.1.1,59.95473419394903,2025-09-25 16h44.44.449250 +0700,
กฤษณะ,กาญจนา,men.png,กฤษณะ,men.png,กฤษณะ,21,21,10,j,0.2345479999203235,None,10,21,21,0,15.529833699925803,,15.524545899941586,15.529833699925803,15.529833699925803,15.529833699925803,15.529833699925803,15.773419399978593,j,0.2345479999203235,None,15.773471099906601,15.773514900007285,731253,001,2025-09-25_16h44.41.415,Priming_gender,,2025.1.1,59.95473419394903,2025-09-25 16h44.44.449250 +0700,
กฤษณะ,กาญจนา,men.png,กฤษณะ,men.png,กฤษณะ,22,22,11,j,0.1815779999596998,None,11,22,22,0,15.797215699916705,,15.791754200006835,15.797215699916705,15.797215699916705,15.797215699916705,15.797215699916705,15.989996599964797,j,0.1815779999596998,None,15.990045399987139,15.990087499958463,731253,001,2025-09-25_16h44.41.415,Priming_gender,,2025.1.1,59.95473419394903,2025-09-25 16h44.44.449250 +0700,
นเรศ,พิมพ์ใจ,women.png,นเรศ,men.png,นเรศ,23,23,11,j,0.1830874999286607,None,11,23,23,1,16.014651899924502,,16.008739099954255,16.014651899924502,16.014651899924502,16.014651899924502,16.014651899924502,16.206891699926928,j,0.1830874999286607,None,16.206982899922878,16.207075899932534,731253,001,2025-09-25_16h44.41.415,Priming_gender,,2025.1.1,59.95473419394903,2025-09-25 16h44.44.449250 +0700,
กฤษณะ,กาญจนา,men.png,กฤษณะ,men.png,กฤษณะ,24,24,12,j,0.1522987000644207,None,12,24,24,0,16.229350799927488,,16.22403739998117,16.229350799927488,16.229350799927488,16.229350799927488,16.229350799927488,16.3908073999919,j,0.1522987000644207,None,16.390896699973382,16.39098919997923,731253,001,2025-09-25_16h44.41.415,Priming_gender,,2025.1.1,59.95473419394903,2025-09-25 16h44.44.449250 +0700,
กฤษณะ,กาญจนา,men.png,กฤษณะ,men.png,กฤษณะ,25,25,13,j,0.15752220002468675,None,13,25,25,0,16.4134192999918,,16.40796469990164,16.4134192999918,16.4134192999918,16.4134192999918,16.4134192999918,16.57429499994032,j,0.15752220002468675,None,16.57434849999845,16.57439590001013,731253,001,2025-09-25_16h44.41.415,Priming_gender,,2025.1.1,59.95473419394903,2025-09-25 16h44.44.449250 +0700,
นเรศ,พิมพ์ใจ,women.png,นเรศ,men.png,นเรศ,26,26,12,k,0.2160880999872461,None,12,26,26,1,16.596867299987935,,16.591557499952614,16.596867299987935,16.596867299987935,16.596867299987935,16.596867299987935,16.82352649990935,k,0.2160880999872461,None,16.823572099907324,17.30649399990216,731253,001,2025-09-25_16h44.41.415,Priming_gender,,2025.1.1,59.95473419394903,2025-09-25 16h44.44.449250 +0700,
กฤษณะ,กาญจนา,men.png,กฤษณะ,men.png,กฤษณะ,27,27,14,k,0.11803070001769811,None,14,27,27,0,17.329903699923307,,17.32423679996282,17.329903699923307,17.329903699923307,17.329903699923307,17.329903699923307,17.456952899927273,k,0.11803070001769811,None,17.457000999944285,17.93984859995544,731253,001,2025-09-25_16h44.41.415,Priming_gender,,2025.1.1,59.95473419394903,2025-09-25 16h44.44.449250 +0700,
นเรศ,พิมพ์ใจ,women.png,นเรศ,men.png,นเรศ,28,28,13,k,0.11699709994718432,None,13,28,28,1,17.962395099923015,,17.956796899903566,17.962395099923015,17.962395099923015,17.962395099923015,17.962395099923015,18.090623599942774,k,0.11699709994718432,None,18.090716899954714,18.5738665999379,731253,001,2025-09-25_16h44.41.415,Priming_gender,,2025.1.1,59.95473419394903,2025-09-25 16h44.44.449250 +0700,
นเรศ,พิมพ์ใจ,women.png,นเรศ,men.png,นเรศ,29,29,14,,,,14,29,29,1,18.59673569991719,,18.591570299933665,18.59673569991719,18.59673569991719,18.59673569991719,18.59673569991719,18.990110000013374,k,0.38000049989204854,None,18.99020160001237,,,,,,,,,,
