Male,Female,Image,Name,ImagePriming,NamePriming,ImageTrig,NameTrig,Trig,thisN,thisTrialN,thisRepN,key_resp.keys,key_resp.rt,key_resp.duration,training.thisRepN,training.thisTrialN,training.thisN,training.thisIndex,priming.thisRepN,priming.thisTrialN,priming.thisN,priming.thisIndex,thisRow.t,notes,training_Instruction.started,instruction_slide.started,instruction_continue.started,training_Instruction.stopped,instruction_continue.keys,instruction_continue.rt,instruction_continue.duration,training_block.started,MAN.started,WOMAN.started,pic.started,key_resp.started,training_block.stopped,training.key_resp.keys,training.key_resp.rt,training.key_resp.duration,priming_instruction.started,instruction_slide_2.started,instruction_continue_2.started,priming_instruction.stopped,instruction_continue_2.keys,instruction_continue_2.rt,instruction_continue_2.duration,participant,session,date,expName,expVersion,psychopyVersion,frameRate,expStart,
,,,,,,,,,,,,,,,,,,,,,,,,,0.008321600034832954,0.028091000043787062,0.028091000043787062,0.8308357000350952,space,0.775540699949488,None,,,,,,,,,,,,,,,,,748851,001,2025-09-26_07h54.45.248,Priming_gender,,2025.1.1,60.025342710979785,2025-09-26 07h54.49.256536 +0700,
นเรศ,พิมพ์ใจ,women.png,นเรศ,men.png,นเรศ,10,51,101,0,0,0,j,1.3005977000575513,None,0,0,0,1,,,,,0.9048324000323191,,,,,,,,,0.8843535999767482,0.9048324000323191,0.9048324000323191,0.9048324000323191,0.9048324000323191,2.2067963000154123,j,1.3005977000575513,None,,,,,,,,748851,001,2025-09-26_07h54.45.248,Priming_gender,,2025.1.1,60.025342710979785,2025-09-26 07h54.49.256536 +0700,
นเรศ,พิมพ์ใจ,women.png,นเรศ,men.png,นเรศ,10,51,101,1,1,1,k,0.4075975999003276,None,1,1,1,1,,,,,2.24419720005244,,,,,,,,,2.233944399980828,2.24419720005244,2.24419720005244,2.24419720005244,2.24419720005244,2.6574486000463367,k,0.4075975999003276,None,,,,,,,,748851,001,2025-09-26_07h54.45.248,Priming_gender,,2025.1.1,60.025342710979785,2025-09-26 07h54.49.256536 +0700,
กฤษณะ,กาญจนา,men.png,กฤษณะ,men.png,กฤษณะ,10,50,100,2,2,0,k,0.3473195000551641,None,0,2,2,0,,,,,2.7141344000119716,,,,,,,,,2.7057743000332266,2.7141344000119716,2.7141344000119716,2.7141344000119716,2.7141344000119716,3.073533699964173,k,0.3473195000551641,None,,,,,,,,748851,001,2025-09-26_07h54.45.248,Priming_gender,,2025.1.1,60.025342710979785,2025-09-26 07h54.49.256536 +0700,
กฤษณะ,กาญจนา,men.png,กฤษณะ,men.png,กฤษณะ,10,50,100,3,3,1,k,0.104241699911654,None,1,3,3,0,,,,,3.1099439000245184,,,,,,,,,3.1008357000537217,3.1099439000245184,3.1099439000245184,3.1099439000245184,3.1099439000245184,3.223643400007859,k,0.104241699911654,None,,,,,,,,748851,001,2025-09-26_07h54.45.248,Priming_gender,,2025.1.1,60.025342710979785,2025-09-26 07h54.49.256536 +0700,
กฤษณะ,กาญจนา,men.png,กฤษณะ,men.png,กฤษณะ,10,50,100,4,4,2,k,0.09536850010044873,None,2,4,4,0,,,,,3.259223200031556,,,,,,,,,3.250445000012405,3.259223200031556,3.259223200031556,3.259223200031556,3.259223200031556,3.3568851000163704,k,0.09536850010044873,None,,,,,,,,748851,001,2025-09-26_07h54.45.248,Priming_gender,,2025.1.1,60.025342710979785,2025-09-26 07h54.49.256536 +0700,
นเรศ,พิมพ์ใจ,women.png,นเรศ,men.png,นเรศ,10,51,101,5,5,2,j,0.07108729996252805,None,2,5,5,1,,,,,3.3918954000109807,,,,,,,,,3.3839044000487775,3.3918954000109807,3.3918954000109807,3.3918954000109807,3.3918954000109807,3.4732736999867484,j,0.07108729996252805,None,,,,,,,,748851,001,2025-09-26_07h54.45.248,Priming_gender,,2025.1.1,60.025342710979785,2025-09-26 07h54.49.256536 +0700,
นเรศ,พิมพ์ใจ,women.png,นเรศ,men.png,นเรศ,10,51,101,6,6,3,k,0.08194890001323074,None,3,6,6,1,,,,,3.5127189999911934,,,,,,,,,3.5001600000541657,3.5127189999911934,3.5127189999911934,3.5127189999911934,3.5127189999911934,3.6070235000224784,k,0.08194890001323074,None,,,,,,,,748851,001,2025-09-26_07h54.45.248,Priming_gender,,2025.1.1,60.025342710979785,2025-09-26 07h54.49.256536 +0700,
กฤษณะ,กาญจนา,men.png,กฤษณะ,men.png,กฤษณะ,10,50,100,7,7,3,j,0.03707409999333322,None,3,7,7,0,,,,,3.641971100005321,,,,,,,,,3.6341135000111535,3.641971100005321,3.641971100005321,3.641971100005321,3.641971100005321,3.689976099994965,j,0.03707409999333322,None,,,,,,,,748851,001,2025-09-26_07h54.45.248,Priming_gender,,2025.1.1,60.025342710979785,2025-09-26 07h54.49.256536 +0700,
กฤษณะ,กาญจนา,men.png,กฤษณะ,men.png,กฤษณะ,10,50,100,8,8,4,k,0.04340660001616925,None,4,8,8,0,,,,,3.72718090005219,,,,,,,,,3.7170564000261948,3.72718090005219,3.72718090005219,3.72718090005219,3.72718090005219,3.7736704000271857,k,0.04340660001616925,None,,,,,,,,748851,001,2025-09-26_07h54.45.248,Priming_gender,,2025.1.1,60.025342710979785,2025-09-26 07h54.49.256536 +0700,
กฤษณะ,กาญจนา,men.png,กฤษณะ,men.png,กฤษณะ,10,50,100,9,9,5,j,0.04104199993889779,None,5,9,9,0,,,,,3.8092939000343904,,,,,,,,,3.8007037000497803,3.8092939000343904,3.8092939000343904,3.8092939000343904,3.8092939000343904,3.8567661000415683,j,0.04104199993889779,None,,,,,,,,748851,001,2025-09-26_07h54.45.248,Priming_gender,,2025.1.1,60.025342710979785,2025-09-26 07h54.49.256536 +0700,
กฤษณะ,กาญจนา,men.png,กฤษณะ,men.png,กฤษณะ,10,50,100,10,10,6,k,0.047585400054231286,None,6,10,10,0,,,,,3.8910113000310957,,,,,,,,,3.882811199990101,3.8910113000310957,3.8910113000310957,3.8910113000310957,3.8910113000310957,3.939887100015767,k,0.047585400054231286,None,,,,,,,,748851,001,2025-09-26_07h54.45.248,Priming_gender,,2025.1.1,60.025342710979785,2025-09-26 07h54.49.256536 +0700,
กฤษณะ,กาญจนา,men.png,กฤษณะ,men.png,กฤษณะ,10,50,100,11,11,7,j,0.03363720001652837,None,7,11,11,0,,,,,3.974827300058678,,,,,,,,,3.96709060005378,3.974827300058678,3.974827300058678,3.974827300058678,3.974827300058678,4.023494399967603,j,0.03363720001652837,None,,,,,,,,748851,001,2025-09-26_07h54.45.248,Priming_gender,,2025.1.1,60.025342710979785,2025-09-26 07h54.49.256536 +0700,
นเรศ,พิมพ์ใจ,women.png,นเรศ,men.png,นเรศ,10,51,101,12,12,4,k,0.043189399992115796,None,4,12,12,1,,,,,4.056884399964474,,,,,,,,,4.050020499969833,4.056884399964474,4.056884399964474,4.056884399964474,4.056884399964474,4.106402600067668,k,0.043189399992115796,None,,,,,,,,748851,001,2025-09-26_07h54.45.248,Priming_gender,,2025.1.1,60.025342710979785,2025-09-26 07h54.49.256536 +0700,
นเรศ,พิมพ์ใจ,women.png,นเรศ,men.png,นเรศ,10,51,101,13,13,5,j,0.027074099984019995,None,5,13,13,1,,,,,4.140522500034422,,,,,,,,,4.133208099985495,4.140522500034422,4.140522500034422,4.140522500034422,4.140522500034422,4.17378589999862,j,0.027074099984019995,None,,,,,,,,748851,001,2025-09-26_07h54.45.248,Priming_gender,,2025.1.1,60.025342710979785,2025-09-26 07h54.49.256536 +0700,
นเรศ,พิมพ์ใจ,women.png,นเรศ,men.png,นเรศ,10,51,101,14,14,6,k,0.05575609998777509,None,6,14,14,1,,,,,4.209334000013769,,,,,,,,,4.1997344000265,4.209334000013769,4.209334000013769,4.209334000013769,4.209334000013769,4.273145999992266,k,0.05575609998777509,None,,,,,,,,748851,001,2025-09-26_07h54.45.248,Priming_gender,,2025.1.1,60.025342710979785,2025-09-26 07h54.49.256536 +0700,
กฤษณะ,กาญจนา,men.png,กฤษณะ,men.png,กฤษณะ,10,50,100,15,15,8,j,0.011644699960015714,None,8,15,15,0,,,,,4.311434300034307,,,,,,,,,4.302770400070585,4.311434300034307,4.311434300034307,4.311434300034307,4.311434300034307,4.3402548000449315,j,0.011644699960015714,None,,,,,,,,748851,001,2025-09-26_07h54.45.248,Priming_gender,,2025.1.1,60.025342710979785,2025-09-26 07h54.49.256536 +0700,
กฤษณะ,กาญจนา,men.png,กฤษณะ,men.png,กฤษณะ,10,50,100,16,16,9,k,0.029638599953614175,None,9,16,16,0,,,,,4.376746700028889,,,,,,,,,4.367910100030713,4.376746700028889,4.376746700028889,4.376746700028889,4.376746700028889,4.407089099986479,k,0.029638599953614175,None,,,,,,,,748851,001,2025-09-26_07h54.45.248,Priming_gender,,2025.1.1,60.025342710979785,2025-09-26 07h54.49.256536 +0700,
กฤษณะ,กาญจนา,men.png,กฤษณะ,men.png,กฤษณะ,10,50,100,17,17,10,j,0.04053500003647059,None,10,17,17,0,,,,,4.441416900022887,,,,,,,,,4.433795400080271,4.441416900022887,4.441416900022887,4.441416900022887,4.441416900022887,4.489859699970111,j,0.04053500003647059,None,,,,,,,,748851,001,2025-09-26_07h54.45.248,Priming_gender,,2025.1.1,60.025342710979785,2025-09-26 07h54.49.256536 +0700,
นเรศ,พิมพ์ใจ,women.png,นเรศ,men.png,นเรศ,10,51,101,18,18,7,k,0.049041899968869984,None,7,18,18,1,,,,,4.52558570005931,,,,,,,,,4.5165184000507,4.52558570005931,4.52558570005931,4.52558570005931,4.52558570005931,4.590081200003624,k,0.049041899968869984,None,,,,,,,,748851,001,2025-09-26_07h54.45.248,Priming_gender,,2025.1.1,60.025342710979785,2025-09-26 07h54.49.256536 +0700,
นเรศ,พิมพ์ใจ,women.png,นเรศ,men.png,นเรศ,10,51,101,19,19,8,j,0.018674299935810268,None,8,19,19,1,,,,,4.623350300011225,,,,,,,,,4.616697799996473,4.623350300011225,4.623350300011225,4.623350300011225,4.623350300011225,4.6572044000495225,j,0.018674299935810268,None,,,,,,,,748851,001,2025-09-26_07h54.45.248,Priming_gender,,2025.1.1,60.025342710979785,2025-09-26 07h54.49.256536 +0700,
นเรศ,พิมพ์ใจ,women.png,นเรศ,men.png,นเรศ,10,51,101,20,20,9,k,0.04016799991950393,None,9,20,20,1,,,,,4.692798300064169,,,,,,,,,4.683591900044121,4.692798300064169,4.692798300064169,4.692798300064169,4.692798300064169,4.739712100010365,k,0.04016799991950393,None,,,,,,,,748851,001,2025-09-26_07h54.45.248,Priming_gender,,2025.1.1,60.025342710979785,2025-09-26 07h54.49.256536 +0700,
กฤษณะ,กาญจนา,men.png,กฤษณะ,men.png,กฤษณะ,10,50,100,21,21,11,j,0.03988010005559772,None,11,21,21,0,,,,,4.773523900075816,,,,,,,,,4.766270600026473,4.773523900075816,4.773523900075816,4.773523900075816,4.773523900075816,4.8233307000482455,j,0.03988010005559772,None,,,,,,,,748851,001,2025-09-26_07h54.45.248,Priming_gender,,2025.1.1,60.025342710979785,2025-09-26 07h54.49.256536 +0700,
นเรศ,พิมพ์ใจ,women.png,นเรศ,men.png,นเรศ,10,51,101,22,22,10,k,0.04438819992356002,None,10,22,22,1,,,,,4.857406300026923,,,,,,,,,4.849388899980113,4.857406300026923,4.857406300026923,4.857406300026923,4.857406300026923,4.906376400031149,k,0.04438819992356002,None,,,,,,,,748851,001,2025-09-26_07h54.45.248,Priming_gender,,2025.1.1,60.025342710979785,2025-09-26 07h54.49.256536 +0700,
กฤษณะ,กาญจนา,men.png,กฤษณะ,men.png,กฤษณะ,10,50,100,23,23,12,j,0.03878189995884895,None,12,23,23,0,,,,,4.940495799994096,,,,,,,,,4.933070900035091,4.940495799994096,4.940495799994096,4.940495799994096,4.940495799994096,4.9898510000202805,j,0.03878189995884895,None,,,,,,,,748851,001,2025-09-26_07h54.45.248,Priming_gender,,2025.1.1,60.025342710979785,2025-09-26 07h54.49.256536 +0700,
กฤษณะ,กาญจนา,men.png,กฤษณะ,men.png,กฤษณะ,10,50,100,24,24,13,k,0.04756520001683384,None,13,24,24,0,,,,,5.023431800073013,,,,,,,,,5.016026600031182,5.023431800073013,5.023431800073013,5.023431800073013,5.023431800073013,5.073631500010379,k,0.04756520001683384,None,,,,,,,,748851,001,2025-09-26_07h54.45.248,Priming_gender,,2025.1.1,60.025342710979785,2025-09-26 07h54.49.256536 +0700,
นเรศ,พิมพ์ใจ,women.png,นเรศ,men.png,นเรศ,10,51,101,25,25,11,j,0.028117300011217594,None,11,25,25,1,,,,,5.1120549000333995,,,,,,,,,5.102691399981268,5.1120549000333995,5.1120549000333995,5.1120549000333995,5.1120549000333995,5.156611800077371,j,0.028117300011217594,None,,,,,,,,748851,001,2025-09-26_07h54.45.248,Priming_gender,,2025.1.1,60.025342710979785,2025-09-26 07h54.49.256536 +0700,
กฤษณะ,กาญจนา,men.png,กฤษณะ,men.png,กฤษณะ,10,50,100,26,26,14,k,0.046015000087209046,None,14,26,26,0,,,,,5.188010600046255,,,,,,,,,5.180927200010046,5.188010600046255,5.188010600046255,5.188010600046255,5.188010600046255,5.238586400053464,k,0.046015000087209046,None,,,,,,,,748851,001,2025-09-26_07h54.45.248,Priming_gender,,2025.1.1,60.025342710979785,2025-09-26 07h54.49.256536 +0700,
นเรศ,พิมพ์ใจ,women.png,นเรศ,men.png,นเรศ,10,51,101,27,27,12,j,0.028693699976429343,None,12,27,27,1,,,,,5.2668866000603884,,,,,,,,,5.261339300079271,5.2668866000603884,5.2668866000603884,5.2668866000603884,5.2668866000603884,5.305512099992484,j,0.028693699976429343,None,,,,,,,,748851,001,2025-09-26_07h54.45.248,Priming_gender,,2025.1.1,60.025342710979785,2025-09-26 07h54.49.256536 +0700,
กฤษณะ,กาญจนา,men.png,กฤษณะ,men.png,กฤษณะ,10,50,100,28,28,15,k,0.055438100011087954,None,15,28,28,0,,,,,5.333946699975058,,,,,,,,,5.328379100072198,5.333946699975058,5.333946699975058,5.333946699975058,5.333946699975058,5.405313999974169,k,0.055438100011087954,None,,,,,,,,748851,001,2025-09-26_07h54.45.248,Priming_gender,,2025.1.1,60.025342710979785,2025-09-26 07h54.49.256536 +0700,
กฤษณะ,กาญจนา,men.png,กฤษณะ,men.png,กฤษณะ,10,50,100,29,29,16,j,0.03206439991481602,None,16,29,29,0,,,,,5.435558199998923,,,,,,,,,5.429769000038505,5.435558199998923,5.435558199998923,5.435558199998923,5.435558199998923,5.4720904000569135,j,0.03206439991481602,None,,,,,,,,748851,001,2025-09-26_07h54.45.248,Priming_gender,,2025.1.1,60.025342710979785,2025-09-26 07h54.49.256536 +0700,
กฤษณะ,กาญจนา,men.png,กฤษณะ,men.png,กฤษณะ,10,50,100,30,30,17,k,0.04013540002051741,None,17,30,30,0,,,,,5.500924300053157,,,,,,,,,5.494774100021459,5.500924300053157,5.500924300053157,5.500924300053157,5.500924300053157,5.555841700057499,k,0.04013540002051741,None,,,,,,,,748851,001,2025-09-26_07h54.45.248,Priming_gender,,2025.1.1,60.025342710979785,2025-09-26 07h54.49.256536 +0700,
นเรศ,พิมพ์ใจ,women.png,นเรศ,men.png,นเรศ,10,51,101,31,31,13,j,0.04238710005301982,None,13,31,31,1,,,,,5.5838816000614315,,,,,,,,,5.577930700033903,5.5838816000614315,5.5838816000614315,5.5838816000614315,5.5838816000614315,5.640033700037748,j,0.04238710005301982,None,,,,,,,,748851,001,2025-09-26_07h54.45.248,Priming_gender,,2025.1.1,60.025342710979785,2025-09-26 07h54.49.256536 +0700,
นเรศ,พิมพ์ใจ,women.png,นเรศ,men.png,นเรศ,10,51,101,32,32,14,k,0.03313869994599372,None,14,32,32,1,,,,,5.668413600069471,,,,,,,,,5.662791099981405,5.668413600069471,5.668413600069471,5.668413600069471,5.668413600069471,5.706876900047064,k,0.03313869994599372,None,,,,,,,,748851,001,2025-09-26_07h54.45.248,Priming_gender,,2025.1.1,60.025342710979785,2025-09-26 07h54.49.256536 +0700,
กฤษณะ,กาญจนา,men.png,กฤษณะ,men.png,กฤษณะ,10,50,100,33,33,18,j,0.04610330006107688,None,18,33,33,0,,,,,5.739074600045569,,,,,,,,,5.732137500075623,5.739074600045569,5.739074600045569,5.739074600045569,5.739074600045569,5.790173500077799,j,0.04610330006107688,None,,,,,,,,748851,001,2025-09-26_07h54.45.248,Priming_gender,,2025.1.1,60.025342710979785,2025-09-26 07h54.49.256536 +0700,
นเรศ,พิมพ์ใจ,women.png,นเรศ,men.png,นเรศ,10,51,101,34,34,15,k,0.04739990003872663,None,15,34,34,1,,,,,5.826254800078459,,,,,,,,,5.8172435000305995,5.826254800078459,5.826254800078459,5.826254800078459,5.826254800078459,5.88969390001148,k,0.04739990003872663,None,,,,,,,,748851,001,2025-09-26_07h54.45.248,Priming_gender,,2025.1.1,60.025342710979785,2025-09-26 07h54.49.256536 +0700,
นเรศ,พิมพ์ใจ,women.png,นเรศ,men.png,นเรศ,10,51,101,35,35,16,j,0.03531730000395328,None,16,35,35,1,,,,,5.923313400009647,,,,,,,,,5.916467100032605,5.923313400009647,5.923313400009647,5.923313400009647,5.923313400009647,5.9734984000679106,j,0.03531730000395328,None,,,,,,,,748851,001,2025-09-26_07h54.45.248,Priming_gender,,2025.1.1,60.025342710979785,2025-09-26 07h54.49.256536 +0700,
นเรศ,พิมพ์ใจ,women.png,นเรศ,men.png,นเรศ,10,51,101,36,36,17,k,0.029841900104656816,None,17,36,36,1,,,,,6.007732399972156,,,,,,,,,6.000185300013982,6.007732399972156,6.007732399972156,6.007732399972156,6.007732399972156,6.039732599980198,k,0.029841900104656816,None,,,,,,,,748851,001,2025-09-26_07h54.45.248,Priming_gender,,2025.1.1,60.025342710979785,2025-09-26 07h54.49.256536 +0700,
นเรศ,พิมพ์ใจ,women.png,นเรศ,men.png,นเรศ,10,51,101,37,37,18,j,0.04323760000988841,None,18,37,37,1,,,,,6.073400900000706,,,,,,,,,6.0659151000436395,6.073400900000706,6.073400900000706,6.073400900000706,6.073400900000706,6.123209199984558,j,0.04323760000988841,None,,,,,,,,748851,001,2025-09-26_07h54.45.248,Priming_gender,,2025.1.1,60.025342710979785,2025-09-26 07h54.49.256536 +0700,
นเรศ,พิมพ์ใจ,women.png,นเรศ,men.png,นเรศ,10,51,101,38,38,19,k,0.05479959992226213,None,19,38,38,1,,,,,6.15735350002069,,,,,,,,,6.149572300026193,6.15735350002069,6.15735350002069,6.15735350002069,6.15735350002069,6.22305580007378,k,0.05479959992226213,None,,,,,,,,748851,001,2025-09-26_07h54.45.248,Priming_gender,,2025.1.1,60.025342710979785,2025-09-26 07h54.49.256536 +0700,
กฤษณะ,กาญจนา,men.png,กฤษณะ,men.png,กฤษณะ,10,50,100,39,39,19,j,0.04516959993634373,None,19,39,39,0,,,,,6.257467000046745,,,,,,,,,6.24974330002442,6.257467000046745,6.257467000046745,6.257467000046745,6.257467000046745,6.306413399986923,j,0.04516959993634373,None,,,,,,,,748851,001,2025-09-26_07h54.45.248,Priming_gender,,2025.1.1,60.025342710979785,2025-09-26 07h54.49.256536 +0700,
,,,,,,,,,,,,,,,,,,,,,,,,,,,,,,,,,,,,,,,,,6.306566299987026,6.325081699993461,6.325081699993461,7.109241400030442,space,0.767626199987717,None,748851,001,2025-09-26_07h54.45.248,Priming_gender,,2025.1.1,60.025342710979785,2025-09-26 07h54.49.256536 +0700,
ภูมิพัฒน์,จิตติมา,None,ภูมิพัฒน์,men.png,ภูมิพัฒน์,10,56,106,0,0,0,,,,,,,,0,0,0,6,,,,,,,,,,,,,,,,,,,,,,,,,,,,,,,,,,
