Male,Female,Image,Name,ImagePriming,NamePriming,ImageTrig,NameTrig,Trig,thisN,thisTrialN,thisRepN,key_resp.keys,key_resp.rt,key_resp.duration,key_resp_3.keys,key_resp_3.rt,key_resp_3.duration,training.thisRepN,training.thisTrialN,training.thisN,training.thisIndex,priming.thisRepN,priming.thisTrialN,priming.thisN,priming.thisIndex,thisRow.t,notes,training_Instruction.started,instruction_slide.started,instruction_continue.started,training_Instruction.stopped,instruction_continue.keys,instruction_continue.rt,instruction_continue.duration,training_block.started,MAN.started,WOMAN.started,pic.started,key_resp.started,training_block.stopped,training.key_resp.keys,training.key_resp.rt,training.key_resp.duration,priming_instruction.started,instruction_slide_2.started,instruction_continue_2.started,priming_instruction.stopped,instruction_continue_2.keys,instruction_continue_2.rt,instruction_continue_2.duration,priming_block.started,MAN_3.started,MAN_3_desc.started,WOMAN_3.started,WOMAN_3_desc.started,name_2.started,pic_2.started,key_resp_3.started,name_2.stopped,priming_block.stopped,priming.key_resp_3.keys,priming.key_resp_3.rt,priming.key_resp_3.duration,participant,session,date,expName,expVersion,psychopyVersion,frameRate,expStart,
,,,,,,,,,,,,,,,,,,,,,,,,,,,,0.008248499943874776,0.021243899944238365,0.021243899944238365,56.8229017999256,space,56.79041290003806,None,,,,,,,,,,,,,,,,,,,,,,,,,,,,,,835506,001,2025-09-26_10h26.02.478,Priming_gender,,2025.1.1,60.25439403867246,2025-09-26 10h26.23.904692 +0700,
กฤษณะ,กาญจนา,men.png,กฤษณะ,men.png,กฤษณะ,10,50,100,0,0,0,j,0.8034229999175295,None,,,,0,0,0,0,,,,,56.87024229997769,,,,,,,,,56.86088980000932,56.87024229997769,56.87024229997769,56.87024229997769,56.87024229997769,57.68181129998993,j,0.8034229999175295,None,,,,,,,,,,,,,,,,,,,,,835506,001,2025-09-26_10h26.02.478,Priming_gender,,2025.1.1,60.25439403867246,2025-09-26 10h26.23.904692 +0700,
กฤษณะ,กาญจนา,men.png,กฤษณะ,men.png,กฤษณะ,10,50,100,1,1,1,k,0.1416474999859929,None,,,,1,1,1,0,,,,,57.7180591999786,,,,,,,,,57.710451799910516,57.7180591999786,57.7180591999786,57.7180591999786,57.7180591999786,57.86498479999136,k,0.1416474999859929,None,,,,,,,,,,,,,,,,,,,,,835506,001,2025-09-26_10h26.02.478,Priming_gender,,2025.1.1,60.25439403867246,2025-09-26 10h26.23.904692 +0700,
นเรศ,พิมพ์ใจ,women.png,นเรศ,men.png,นเรศ,10,51,101,2,2,0,j,0.09527370007708669,None,,,,0,2,2,1,,,,,57.89941309997812,,,,,,,,,57.89169650000986,57.89941309997812,57.89941309997812,57.89941309997812,57.89941309997812,57.99888159998227,j,0.09527370007708669,None,,,,,,,,,,,,,,,,,,,,,835506,001,2025-09-26_10h26.02.478,Priming_gender,,2025.1.1,60.25439403867246,2025-09-26 10h26.23.904692 +0700,
นเรศ,พิมพ์ใจ,women.png,นเรศ,men.png,นเรศ,10,51,101,3,3,1,k,0.10640050005167723,None,,,,1,3,3,1,,,,,58.034763199975714,,,,,,,,,58.027333299978636,58.034763199975714,58.034763199975714,58.034763199975714,58.034763199975714,58.14869079994969,k,0.10640050005167723,None,,,,,,,,,,,,,,,,,,,,,835506,001,2025-09-26_10h26.02.478,Priming_gender,,2025.1.1,60.25439403867246,2025-09-26 10h26.23.904692 +0700,
นเรศ,พิมพ์ใจ,women.png,นเรศ,men.png,นเรศ,10,51,101,4,4,2,j,0.03218009998090565,None,,,,2,4,4,1,,,,,58.18491059995722,,,,,,,,,58.17664779990446,58.18491059995722,58.18491059995722,58.18491059995722,58.18491059995722,58.23309909994714,j,0.03218009998090565,None,,,,,,,,,,,,,,,,,,,,,835506,001,2025-09-26_10h26.02.478,Priming_gender,,2025.1.1,60.25439403867246,2025-09-26 10h26.23.904692 +0700,
กฤษณะ,กาญจนา,men.png,กฤษณะ,men.png,กฤษณะ,10,50,100,5,5,2,k,0.08573310007341206,None,,,,2,5,5,0,,,,,58.27060069993604,,,,,,,,,58.26186829991639,58.27060069993604,58.27060069993604,58.27060069993604,58.27060069993604,58.36561899993103,k,0.08573310007341206,None,,,,,,,,,,,,,,,,,,,,,835506,001,2025-09-26_10h26.02.478,Priming_gender,,2025.1.1,60.25439403867246,2025-09-26 10h26.23.904692 +0700,
นเรศ,พิมพ์ใจ,women.png,นเรศ,men.png,นเรศ,10,51,101,6,6,3,j,0.02805700001772493,None,,,,3,6,6,1,,,,,58.40336459991522,,,,,,,,,58.395041699986905,58.40336459991522,58.40336459991522,58.40336459991522,58.40336459991522,58.43300369998906,j,0.02805700001772493,None,,,,,,,,,,,,,,,,,,,,,835506,001,2025-09-26_10h26.02.478,Priming_gender,,2025.1.1,60.25439403867246,2025-09-26 10h26.23.904692 +0700,
นเรศ,พิมพ์ใจ,women.png,นเรศ,men.png,นเรศ,10,51,101,7,7,4,k,0.07319410005584359,None,,,,4,7,7,1,,,,,58.472644399967976,,,,,,,,,58.46320839994587,58.472644399967976,58.472644399967976,58.472644399967976,58.472644399967976,58.55033120000735,k,0.07319410005584359,None,,,,,,,,,,,,,,,,,,,,,835506,001,2025-09-26_10h26.02.478,Priming_gender,,2025.1.1,60.25439403867246,2025-09-26 10h26.23.904692 +0700,
นเรศ,พิมพ์ใจ,women.png,นเรศ,men.png,นเรศ,10,51,101,8,8,5,j,0.020872100023552775,None,,,,5,8,8,1,,,,,58.58787809999194,,,,,,,,,58.57895369990729,58.58787809999194,58.58787809999194,58.58787809999194,58.58787809999194,58.61598779994529,j,0.020872100023552775,None,,,,,,,,,,,,,,,,,,,,,835506,001,2025-09-26_10h26.02.478,Priming_gender,,2025.1.1,60.25439403867246,2025-09-26 10h26.23.904692 +0700,
นเรศ,พิมพ์ใจ,women.png,นเรศ,men.png,นเรศ,10,51,101,9,9,6,k,0.06427620002068579,None,,,,6,9,9,1,,,,,58.65304969996214,,,,,,,,,58.6441169999307,58.65304969996214,58.65304969996214,58.65304969996214,58.65304969996214,58.73373639991041,k,0.06427620002068579,None,,,,,,,,,,,,,,,,,,,,,835506,001,2025-09-26_10h26.02.478,Priming_gender,,2025.1.1,60.25439403867246,2025-09-26 10h26.23.904692 +0700,
นเรศ,พิมพ์ใจ,women.png,นเรศ,men.png,นเรศ,10,51,101,10,10,7,j,0.030600800062529743,None,,,,7,10,10,1,,,,,58.769376699929126,,,,,,,,,58.761585999978706,58.769376699929126,58.769376699929126,58.769376699929126,58.769376699929126,58.81691839999985,j,0.030600800062529743,None,,,,,,,,,,,,,,,,,,,,,835506,001,2025-09-26_10h26.02.478,Priming_gender,,2025.1.1,60.25439403867246,2025-09-26 10h26.23.904692 +0700,
กฤษณะ,กาญจนา,men.png,กฤษณะ,men.png,กฤษณะ,10,50,100,11,11,3,k,0.08958410006016493,None,,,,3,11,11,0,,,,,58.85437009995803,,,,,,,,,58.845437299925834,58.85437009995803,58.85437009995803,58.85437009995803,58.85437009995803,58.948695799917914,k,0.08958410006016493,None,,,,,,,,,,,,,,,,,,,,,835506,001,2025-09-26_10h26.02.478,Priming_gender,,2025.1.1,60.25439403867246,2025-09-26 10h26.23.904692 +0700,
นเรศ,พิมพ์ใจ,women.png,นเรศ,men.png,นเรศ,10,51,101,12,12,8,j,0.007014700095169246,None,,,,8,12,12,1,,,,,58.985450099920854,,,,,,,,,58.976847099955194,58.985450099920854,58.985450099920854,58.985450099920854,58.985450099920854,58.99870489991736,j,0.007014700095169246,None,,,,,,,,,,,,,,,,,,,,,835506,001,2025-09-26_10h26.02.478,Priming_gender,,2025.1.1,60.25439403867246,2025-09-26 10h26.23.904692 +0700,
กฤษณะ,กาญจนา,men.png,กฤษณะ,men.png,กฤษณะ,10,50,100,13,13,4,j,0.13135300006251782,None,,,,4,13,13,0,,,,,59.03517369995825,,,,,,,,,59.02688539994415,59.03517369995825,59.03517369995825,59.03517369995825,59.03517369995825,59.1672380999662,j,0.13135300006251782,None,,,,,,,,,,,,,,,,,,,,,835506,001,2025-09-26_10h26.02.478,Priming_gender,,2025.1.1,60.25439403867246,2025-09-26 10h26.23.904692 +0700,
กฤษณะ,กาญจนา,men.png,กฤษณะ,men.png,กฤษณะ,10,50,100,14,14,5,j,0.16255130001809448,None,,,,5,14,14,0,,,,,59.203752500005066,,,,,,,,,59.19554109999444,59.203752500005066,59.203752500005066,59.203752500005066,59.203752500005066,59.3675967999734,j,0.16255130001809448,None,,,,,,,,,,,,,,,,,,,,,835506,001,2025-09-26_10h26.02.478,Priming_gender,,2025.1.1,60.25439403867246,2025-09-26 10h26.23.904692 +0700,
นเรศ,พิมพ์ใจ,women.png,นเรศ,men.png,นเรศ,10,51,101,15,15,9,j,5.623213600018062,None,,,,9,15,15,1,,,,,59.403123599942774,,,,,,,,,59.394527999917045,59.403123599942774,59.403123599942774,59.403123599942774,59.403123599942774,65.03170389996376,j,5.623213600018062,None,,,,,,,,,,,,,,,,,,,,,835506,001,2025-09-26_10h26.02.478,Priming_gender,,2025.1.1,60.25439403867246,2025-09-26 10h26.23.904692 +0700,
กฤษณะ,กาญจนา,men.png,กฤษณะ,men.png,กฤษณะ,10,50,100,16,16,6,k,0.3082430000649765,None,,,,6,16,16,0,,,,,65.06840879993979,,,,,,,,,65.05941149999853,65.06840879993979,65.06840879993979,65.06840879993979,65.06840879993979,65.38146239996422,k,0.3082430000649765,None,,,,,,,,,,,,,,,,,,,,,835506,001,2025-09-26_10h26.02.478,Priming_gender,,2025.1.1,60.25439403867246,2025-09-26 10h26.23.904692 +0700,
กฤษณะ,กาญจนา,men.png,กฤษณะ,men.png,กฤษณะ,10,50,100,17,17,7,k,0.32970450003631413,None,,,,7,17,17,0,,,,,65.41803890001029,,,,,,,,,65.40993169997819,65.41803890001029,65.41803890001029,65.41803890001029,65.41803890001029,65.74909749999642,k,0.32970450003631413,None,,,,,,,,,,,,,,,,,,,,,835506,001,2025-09-26_10h26.02.478,Priming_gender,,2025.1.1,60.25439403867246,2025-09-26 10h26.23.904692 +0700,
นเรศ,พิมพ์ใจ,women.png,นเรศ,men.png,นเรศ,10,51,101,18,18,10,k,0.27475950005464256,None,,,,10,18,18,1,,,,,65.78335349995177,,,,,,,,,65.77545439999085,65.78335349995177,65.78335349995177,65.78335349995177,65.78335349995177,66.06492219993379,k,0.27475950005464256,None,,,,,,,,,,,,,,,,,,,,,835506,001,2025-09-26_10h26.02.478,Priming_gender,,2025.1.1,60.25439403867246,2025-09-26 10h26.23.904692 +0700,
นเรศ,พิมพ์ใจ,women.png,นเรศ,men.png,นเรศ,10,51,101,19,19,11,k,0.21519709995482117,None,,,,11,19,19,1,,,,,66.10146889998578,,,,,,,,,66.09307279996574,66.10146889998578,66.10146889998578,66.10146889998578,66.10146889998578,66.33239379990846,k,0.21519709995482117,None,,,,,,,,,,,,,,,,,,,,,835506,001,2025-09-26_10h26.02.478,Priming_gender,,2025.1.1,60.25439403867246,2025-09-26 10h26.23.904692 +0700,
กฤษณะ,กาญจนา,men.png,กฤษณะ,men.png,กฤษณะ,10,50,100,20,20,8,k,0.16872730001341552,None,,,,8,20,20,0,,,,,66.36820249992888,,,,,,,,,66.36065079993568,66.36820249992888,66.36820249992888,66.36820249992888,66.36820249992888,66.54796749993693,k,0.16872730001341552,None,,,,,,,,,,,,,,,,,,,,,835506,001,2025-09-26_10h26.02.478,Priming_gender,,2025.1.1,60.25439403867246,2025-09-26 10h26.23.904692 +0700,
กฤษณะ,กาญจนา,men.png,กฤษณะ,men.png,กฤษณะ,10,50,100,21,21,9,k,0.12982929998543113,None,,,,9,21,21,0,,,,,66.58423899998888,,,,,,,,,66.57645209995098,66.58423899998888,66.58423899998888,66.58423899998888,66.58423899998888,66.71535049995873,k,0.12982929998543113,None,,,,,,,,,,,,,,,,,,,,,835506,001,2025-09-26_10h26.02.478,Priming_gender,,2025.1.1,60.25439403867246,2025-09-26 10h26.23.904692 +0700,
นเรศ,พิมพ์ใจ,women.png,นเรศ,men.png,นเรศ,10,51,101,22,22,12,k,0.12374469998758286,None,,,,12,22,22,1,,,,,66.75328780000564,,,,,,,,,66.74352209991775,66.75328780000564,66.75328780000564,66.75328780000564,66.75328780000564,66.88131450000219,k,0.12374469998758286,None,,,,,,,,,,,,,,,,,,,,,835506,001,2025-09-26_10h26.02.478,Priming_gender,,2025.1.1,60.25439403867246,2025-09-26 10h26.23.904692 +0700,
กฤษณะ,กาญจนา,men.png,กฤษณะ,men.png,กฤษณะ,10,50,100,23,23,10,k,0.09748820005916059,None,,,,10,23,23,0,,,,,66.91770309989806,,,,,,,,,66.90971129992977,66.91770309989806,66.91770309989806,66.91770309989806,66.91770309989806,67.03141809999943,k,0.09748820005916059,None,,,,,,,,,,,,,,,,,,,,,835506,001,2025-09-26_10h26.02.478,Priming_gender,,2025.1.1,60.25439403867246,2025-09-26 10h26.23.904692 +0700,
กฤษณะ,กาญจนา,men.png,กฤษณะ,men.png,กฤษณะ,10,50,100,24,24,11,k,0.12298420001752675,None,,,,11,24,24,0,,,,,67.0670814999612,,,,,,,,,67.05970549990889,67.0670814999612,67.0670814999612,67.0670814999612,67.0670814999612,67.19823769992217,k,0.12298420001752675,None,,,,,,,,,,,,,,,,,,,,,835506,001,2025-09-26_10h26.02.478,Priming_gender,,2025.1.1,60.25439403867246,2025-09-26 10h26.23.904692 +0700,
กฤษณะ,กาญจนา,men.png,กฤษณะ,men.png,กฤษณะ,10,50,100,25,25,12,k,0.12637579999864101,None,,,,12,25,25,0,,,,,67.23490879999008,,,,,,,,,67.22716119990218,67.23490879999008,67.23490879999008,67.23490879999008,67.23490879999008,67.36527299997397,k,0.12637579999864101,None,,,,,,,,,,,,,,,,,,,,,835506,001,2025-09-26_10h26.02.478,Priming_gender,,2025.1.1,60.25439403867246,2025-09-26 10h26.23.904692 +0700,
นเรศ,พิมพ์ใจ,women.png,นเรศ,men.png,นเรศ,10,51,101,26,26,13,k,0.11388369998894632,None,,,,13,26,26,1,,,,,67.4032577999169,,,,,,,,,67.39430829999037,67.4032577999169,67.4032577999169,67.4032577999169,67.4032577999169,67.53295619995333,k,0.11388369998894632,None,,,,,,,,,,,,,,,,,,,,,835506,001,2025-09-26_10h26.02.478,Priming_gender,,2025.1.1,60.25439403867246,2025-09-26 10h26.23.904692 +0700,
นเรศ,พิมพ์ใจ,women.png,นเรศ,men.png,นเรศ,10,51,101,27,27,14,j,0.41604839998763055,None,,,,14,27,27,1,,,,,67.57142649998423,,,,,,,,,67.56316119991243,67.57142649998423,67.57142649998423,67.57142649998423,67.57142649998423,67.99836570001207,j,0.41604839998763055,None,,,,,,,,,,,,,,,,,,,,,835506,001,2025-09-26_10h26.02.478,Priming_gender,,2025.1.1,60.25439403867246,2025-09-26 10h26.23.904692 +0700,
กฤษณะ,กาญจนา,men.png,กฤษณะ,men.png,กฤษณะ,10,50,100,28,28,13,j,2.383109400048852,None,,,,13,28,28,0,,,,,68.03364729997702,,,,,,,,,68.02612699999008,68.03364729997702,68.03364729997702,68.03364729997702,68.03364729997702,70.43221719993744,j,2.383109400048852,None,,,,,,,,,,,,,,,,,,,,,835506,001,2025-09-26_10h26.02.478,Priming_gender,,2025.1.1,60.25439403867246,2025-09-26 10h26.23.904692 +0700,
กฤษณะ,กาญจนา,men.png,กฤษณะ,men.png,กฤษณะ,10,50,100,29,29,14,j,1.4902687999419868,None,,,,14,29,29,0,,,,,70.46774579992052,,,,,,,,,70.45933250000235,70.46774579992052,70.46774579992052,70.46774579992052,70.46774579992052,71.96453929995187,j,1.4902687999419868,None,,,,,,,,,,,,,,,,,,,,,835506,001,2025-09-26_10h26.02.478,Priming_gender,,2025.1.1,60.25439403867246,2025-09-26 10h26.23.904692 +0700,
กฤษณะ,กาญจนา,men.png,กฤษณะ,men.png,กฤษณะ,10,50,100,30,30,15,j,0.4046896999934688,None,,,,15,30,30,0,,,,,71.99939049989916,,,,,,,,,71.99092389992438,71.99939049989916,71.99939049989916,71.99939049989916,71.99939049989916,72.41487569990568,j,0.4046896999934688,None,,,,,,,,,,,,,,,,,,,,,835506,001,2025-09-26_10h26.02.478,Priming_gender,,2025.1.1,60.25439403867246,2025-09-26 10h26.23.904692 +0700,
กฤษณะ,กาญจนา,men.png,กฤษณะ,men.png,กฤษณะ,10,50,100,31,31,16,k,0.540783999953419,None,,,,16,31,31,0,,,,,72.45014849992003,,,,,,,,,72.44250389991794,72.45014849992003,72.45014849992003,72.45014849992003,72.45014849992003,72.997652299935,k,0.540783999953419,None,,,,,,,,,,,,,,,,,,,,,835506,001,2025-09-26_10h26.02.478,Priming_gender,,2025.1.1,60.25439403867246,2025-09-26 10h26.23.904692 +0700,
กฤษณะ,กาญจนา,men.png,กฤษณะ,men.png,กฤษณะ,10,50,100,32,32,17,k,0.3212371999397874,None,,,,17,32,32,0,,,,,73.03529449994676,,,,,,,,,73.02596699993592,73.03529449994676,73.03529449994676,73.03529449994676,73.03529449994676,73.36406009993516,k,0.3212371999397874,None,,,,,,,,,,,,,,,,,,,,,835506,001,2025-09-26_10h26.02.478,Priming_gender,,2025.1.1,60.25439403867246,2025-09-26 10h26.23.904692 +0700,
กฤษณะ,กาญจนา,men.png,กฤษณะ,men.png,กฤษณะ,10,50,100,33,33,18,k,0.15937729994766414,None,,,,18,33,33,0,,,,,73.4000816999469,,,,,,,,,73.392280299915,73.4000816999469,73.4000816999469,73.4000816999469,73.4000816999469,73.56427470000926,k,0.15937729994766414,None,,,,,,,,,,,,,,,,,,,,,835506,001,2025-09-26_10h26.02.478,Priming_gender,,2025.1.1,60.25439403867246,2025-09-26 10h26.23.904692 +0700,
นเรศ,พิมพ์ใจ,women.png,นเรศ,men.png,นเรศ,10,51,101,34,34,15,k,0.15697030001319945,None,,,,15,34,34,1,,,,,73.60194510000292,,,,,,,,,73.5940645999508,73.60194510000292,73.60194510000292,73.60194510000292,73.60194510000292,73.76438009995036,k,0.15697030001319945,None,,,,,,,,,,,,,,,,,,,,,835506,001,2025-09-26_10h26.02.478,Priming_gender,,2025.1.1,60.25439403867246,2025-09-26 10h26.23.904692 +0700,
นเรศ,พิมพ์ใจ,women.png,นเรศ,men.png,นเรศ,10,51,101,35,35,16,k,0.14066410006489605,None,,,,16,35,35,1,,,,,73.798076499952,,,,,,,,,73.79110939998645,73.798076499952,73.798076499952,73.798076499952,73.798076499952,73.94767209992278,k,0.14066410006489605,None,,,,,,,,,,,,,,,,,,,,,835506,001,2025-09-26_10h26.02.478,Priming_gender,,2025.1.1,60.25439403867246,2025-09-26 10h26.23.904692 +0700,
กฤษณะ,กาญจนา,men.png,กฤษณะ,men.png,กฤษณะ,10,50,100,36,36,19,k,0.11057500005699694,None,,,,19,36,36,0,,,,,73.98534929996822,,,,,,,,,73.97702859994024,73.98534929996822,73.98534929996822,73.98534929996822,73.98534929996822,74.09819269995205,k,0.11057500005699694,None,,,,,,,,,,,,,,,,,,,,,835506,001,2025-09-26_10h26.02.478,Priming_gender,,2025.1.1,60.25439403867246,2025-09-26 10h26.23.904692 +0700,
นเรศ,พิมพ์ใจ,women.png,นเรศ,men.png,นเรศ,10,51,101,37,37,17,k,0.12526759994216263,None,,,,17,37,37,1,,,,,74.13542529998813,,,,,,,,,74.12722729996312,74.13542529998813,74.13542529998813,74.13542529998813,74.13542529998813,74.26425419992302,k,0.12526759994216263,None,,,,,,,,,,,,,,,,,,,,,835506,001,2025-09-26_10h26.02.478,Priming_gender,,2025.1.1,60.25439403867246,2025-09-26 10h26.23.904692 +0700,
นเรศ,พิมพ์ใจ,women.png,นเรศ,men.png,นเรศ,10,51,101,38,38,18,k,0.1351894000545144,None,,,,18,38,38,1,,,,,74.29981389991008,,,,,,,,,74.29196629999205,74.29981389991008,74.29981389991008,74.29981389991008,74.29981389991008,74.44736180000473,k,0.1351894000545144,None,,,,,,,,,,,,,,,,,,,,,835506,001,2025-09-26_10h26.02.478,Priming_gender,,2025.1.1,60.25439403867246,2025-09-26 10h26.23.904692 +0700,
นเรศ,พิมพ์ใจ,women.png,นเรศ,men.png,นเรศ,10,51,101,39,39,19,k,0.10507960000541061,None,,,,19,39,39,1,,,,,74.48299419996329,,,,,,,,,74.47537769994233,74.48299419996329,74.48299419996329,74.48299419996329,74.48299419996329,74.59786909993272,k,0.10507960000541061,None,,,,,,,,,,,,,,,,,,,,,835506,001,2025-09-26_10h26.02.478,Priming_gender,,2025.1.1,60.25439403867246,2025-09-26 10h26.23.904692 +0700,
,,,,,,,,,,,,,,,,,,,,,,,,,,,,,,,,,,,,,,,,,,,,74.59809639991727,74.61579569999594,74.61579569999594,79.74904159992002,space,5.118091700016521,None,,,,,,,,,,,,,,835506,001,2025-09-26_10h26.02.478,Priming_gender,,2025.1.1,60.25439403867246,2025-09-26 10h26.23.904692 +0700,
None,None,None,พิมพ์ใจ,men.png,พิมพ์ใจ,10,61,111,0,0,0,,,,j,1.8617486000293866,None,,,,,0,0,0,11,80.37824009999167,,,,,,,,,,,,,,,,,,,,,,,,,80.35838089999743,80.37824009999167,80.37824009999167,80.37824009999167,80.37824009999167,80.37824009999167,80.37824009999167,80.37824009999167,80.67968199995812,82.24687809997704,j,1.8617486000293866,None,835506,001,2025-09-26_10h26.02.478,Priming_gender,,2025.1.1,60.25439403867246,2025-09-26 10h26.23.904692 +0700,
None,None,None,None,women.png,ปัทมา,11,69,139,1,1,0,,,,k,0.620245199999772,None,,,,,0,1,1,39,82.6675518999109,,,,,,,,,,,,,,,,,,,,,,,,,82.65351559990086,82.6675518999109,82.6675518999109,82.6675518999109,82.6675518999109,82.6675518999109,82.6675518999109,82.6675518999109,82.9802936000051,83.29743349994533,k,0.620245199999772,None,835506,001,2025-09-26_10h26.02.478,Priming_gender,,2025.1.1,60.25439403867246,2025-09-26 10h26.23.904692 +0700,
None,None,None,วรรณา,men.png,วรรณา,10,67,117,2,2,0,,,,k,0.36215960001572967,None,,,,,0,2,2,17,83.61983250000048,,,,,,,,,,,,,,,,,,,,,,,,,83.60668749990873,83.61983250000048,83.61983250000048,83.61983250000048,83.61983250000048,83.61983250000048,83.61983250000048,83.61983250000048,83.93221509992145,83.99819650000427,k,0.36215960001572967,None,835506,001,2025-09-26_10h26.02.478,Priming_gender,,2025.1.1,60.25439403867246,2025-09-26 10h26.23.904692 +0700,
None,None,None,None,women.png,ศิริพร,11,64,134,3,3,0,,,,k,0.38607399992179126,None,,,,,0,3,3,34,84.13747279997915,,,,,,,,,,,,,,,,,,,,,,,,,84.12565019994508,84.13747279997915,84.13747279997915,84.13747279997915,84.13747279997915,84.13747279997915,84.29744609992485,84.13747279997915,84.44687300000805,84.53098279994447,k,0.38607399992179126,None,835506,001,2025-09-26_10h26.02.478,Priming_gender,,2025.1.1,60.25439403867246,2025-09-26 10h26.23.904692 +0700,
None,None,None,จิตติมา,men.png,จิตติมา,10,66,116,4,4,0,,,,k,0.32120070001110435,None,,,,,0,4,4,16,84.67039549991023,,,,,,,,,,,,,,,,,,,,,,,,,84.6586810000008,84.67039549991023,84.67039549991023,84.67039549991023,84.67039549991023,84.67039549991023,84.8480556999566,84.67039549991023,84.98001279996242,84.99745519994758,k,0.32120070001110435,None,835506,001,2025-09-26_10h26.02.478,Priming_gender,,2025.1.1,60.25439403867246,2025-09-26 10h26.23.904692 +0700,
ธนพล,วาสนา,None,ธนพล,men.png,ธนพล,10,52,102,5,5,0,,,,k,0.07976699993014336,None,,,,,0,5,5,2,85.32593339995947,,,,,,,,,,,,,,,,,,,,,,,,,85.31237820000388,85.32593339995947,85.32593339995947,85.32593339995947,85.32593339995947,85.32593339995947,85.32593339995947,85.32593339995947,,85.41382829996292,k,0.07976699993014336,None,835506,001,2025-09-26_10h26.02.478,Priming_gender,,2025.1.1,60.25439403867246,2025-09-26 10h26.23.904692 +0700,
None,None,None,None,women.png,ธนพล,11,52,122,6,6,0,,,,k,0.4817671000491828,None,,,,,0,6,6,22,85.45444749994203,,,,,,,,,,,,,,,,,,,,,,,,,85.44389659992885,85.45444749994203,85.45444749994203,85.45444749994203,85.45444749994203,85.45444749994203,85.71510289993603,85.45444749994203,85.76363999990281,85.94709129992407,k,0.4817671000491828,None,835506,001,2025-09-26_10h26.02.478,Priming_gender,,2025.1.1,60.25439403867246,2025-09-26 10h26.23.904692 +0700,
None,None,None,None,women.png,กฤษณะ,11,50,120,7,7,0,,,,k,0.11818079999648035,None,,,,,0,7,7,20,86.38259860000107,,,,,,,,,,,,,,,,,,,,,,,,,86.36976889998186,86.38259860000107,86.38259860000107,86.38259860000107,86.38259860000107,86.38259860000107,86.38259860000107,86.38259860000107,,86.51634729991201,k,0.11818079999648035,None,835506,001,2025-09-26_10h26.02.478,Priming_gender,,2025.1.1,60.25439403867246,2025-09-26 10h26.23.904692 +0700,
None,None,None,None,women.png,พิมพ์ใจ,11,61,131,8,8,0,,,,j,0.6160073999781162,None,,,,,0,8,8,31,86.55693079996854,,,,,,,,,,,,,,,,,,,,,,,,,86.54647279996425,86.55693079996854,86.55693079996854,86.55693079996854,86.55693079996854,86.55693079996854,86.83133099996485,86.55693079996854,86.86556609999388,87.18111159990076,j,0.6160073999781162,None,835506,001,2025-09-26_10h26.02.478,Priming_gender,,2025.1.1,60.25439403867246,2025-09-26 10h26.23.904692 +0700,
None,None,None,None,women.png,สุนิสา,11,68,138,9,9,0,,,,k,0.3611547000473365,None,,,,,0,9,9,38,87.40603139996529,,,,,,,,,,,,,,,,,,,,,,,,,87.39495469990652,87.40603139996529,87.40603139996529,87.40603139996529,87.40603139996529,87.40603139996529,87.49787689989898,87.40603139996529,87.71460249996744,87.780841199914,k,0.3611547000473365,None,835506,001,2025-09-26_10h26.02.478,Priming_gender,,2025.1.1,60.25439403867246,2025-09-26 10h26.23.904692 +0700,
None,None,None,None,women.png,วรรณา,11,67,137,10,10,0,,,,,,,,,,,0,10,10,37,87.81859949999489,,,,,,,,,,,,,,,,,,,,,,,,,87.80813269992359,87.81859949999489,87.81859949999489,87.81859949999489,87.81859949999489,87.81859949999489,88.09746469999664,87.81859949999489,88.13057979999576,,,,,,,,,,,,,
