Male,Female,Image,Name,ImagePriming,NamePriming,ImageTrig,NameTrig,Trig,thisN,thisTrialN,thisRepN,key_resp.keys,key_resp.rt,key_resp.duration,key_resp_3.keys,key_resp_3.rt,key_resp_3.duration,training.thisRepN,training.thisTrialN,training.thisN,training.thisIndex,priming.thisRepN,priming.thisTrialN,priming.thisN,priming.thisIndex,thisRow.t,notes,training_Instruction.started,instruction_slide.started,instruction_continue.started,training_Instruction.stopped,instruction_continue.keys,instruction_continue.rt,instruction_continue.duration,training_block.started,MAN.started,WOMAN.started,pic.started,key_resp.started,training_block.stopped,training.key_resp.keys,training.key_resp.rt,training.key_resp.duration,priming_instruction.started,instruction_slide_2.started,instruction_continue_2.started,priming_instruction.stopped,instruction_continue_2.keys,instruction_continue_2.rt,instruction_continue_2.duration,priming_block.started,MAN_3.started,MAN_3_desc.started,WOMAN_3.started,WOMAN_3_desc.started,name_2.started,key_resp_3.started,pic_2.started,name_2.stopped,priming_block.stopped,priming.key_resp_3.keys,priming.key_resp_3.rt,priming.key_resp_3.duration,participant,session,date,expName,expVersion,psychopyVersion,frameRate,expStart,
,,,,,,,,,,,,,,,,,,,,,,,,,,,,0.008042800007387996,0.01920139999128878,0.01920139999128878,1.9442217000760138,space,1.9177327000070363,None,,,,,,,,,,,,,,,,,,,,,,,,,,,,,,839012,001,2025-09-26_10h28.37.593,Priming_gender,,2025.1.1,60.31504965601714,2025-09-26 10h28.54.095206 +0700,
นเรศ,พิมพ์ใจ,women.png,นเรศ,men.png,นเรศ,10,51,101,0,0,0,j,1.034671499975957,None,,,,0,0,0,1,,,,,2.0196217000484467,,,,,,,,,2.0092621999792755,2.0196217000484467,2.0196217000484467,2.0196217000484467,2.0196217000484467,3.069928599987179,j,1.034671499975957,None,,,,,,,,,,,,,,,,,,,,,839012,001,2025-09-26_10h28.37.593,Priming_gender,,2025.1.1,60.31504965601714,2025-09-26 10h28.54.095206 +0700,
กฤษณะ,กาญจนา,men.png,กฤษณะ,men.png,กฤษณะ,10,50,100,1,1,0,k,0.08440870000049472,None,,,,0,1,1,0,,,,,3.119283100008033,,,,,,,,,3.110545900068246,3.119283100008033,3.119283100008033,3.119283100008033,3.119283100008033,3.2197795000392944,k,0.08440870000049472,None,,,,,,,,,,,,,,,,,,,,,839012,001,2025-09-26_10h28.37.593,Priming_gender,,2025.1.1,60.31504965601714,2025-09-26 10h28.54.095206 +0700,
นเรศ,พิมพ์ใจ,women.png,นเรศ,men.png,นเรศ,10,51,101,2,2,1,j,0.11462570005096495,None,,,,1,2,2,1,,,,,3.2586137000471354,,,,,,,,,3.2497058999724686,3.2586137000471354,3.2586137000471354,3.2586137000471354,3.2586137000471354,3.385405300068669,j,0.11462570005096495,None,,,,,,,,,,,,,,,,,,,,,839012,001,2025-09-26_10h28.37.593,Priming_gender,,2025.1.1,60.31504965601714,2025-09-26 10h28.54.095206 +0700,
นเรศ,พิมพ์ใจ,women.png,นเรศ,men.png,นเรศ,10,51,101,3,3,2,k,0.12274320004507899,None,,,,2,3,3,1,,,,,3.4233589000068605,,,,,,,,,3.4150533999782056,3.4233589000068605,3.4233589000068605,3.4233589000068605,3.4233589000068605,3.5516368000535294,k,0.12274320004507899,None,,,,,,,,,,,,,,,,,,,,,839012,001,2025-09-26_10h28.37.593,Priming_gender,,2025.1.1,60.31504965601714,2025-09-26 10h28.54.095206 +0700,
นเรศ,พิมพ์ใจ,women.png,นเรศ,men.png,นเรศ,10,51,101,4,4,3,j,0.008091799914836884,None,,,,3,4,4,1,,,,,3.5899744000053033,,,,,,,,,3.5814326000399888,3.5899744000053033,3.5899744000053033,3.5899744000053033,3.5899744000053033,3.601729099988006,j,0.008091799914836884,None,,,,,,,,,,,,,,,,,,,,,839012,001,2025-09-26_10h28.37.593,Priming_gender,,2025.1.1,60.31504965601714,2025-09-26 10h28.54.095206 +0700,
กฤษณะ,กาญจนา,men.png,กฤษณะ,men.png,กฤษณะ,10,50,100,5,5,1,k,0.08879539999179542,None,,,,1,5,5,0,,,,,3.6418806000147015,,,,,,,,,3.632066100020893,3.6418806000147015,3.6418806000147015,3.6418806000147015,3.6418806000147015,3.735671699978411,k,0.08879539999179542,None,,,,,,,,,,,,,,,,,,,,,839012,001,2025-09-26_10h28.37.593,Priming_gender,,2025.1.1,60.31504965601714,2025-09-26 10h28.54.095206 +0700,
นเรศ,พิมพ์ใจ,women.png,นเรศ,men.png,นเรศ,10,51,101,6,6,4,j,0.08505909994710237,None,,,,4,6,6,1,,,,,3.7749098000349477,,,,,,,,,3.7658498000819236,3.7749098000349477,3.7749098000349477,3.7749098000349477,3.7749098000349477,3.8677797000855207,j,0.08505909994710237,None,,,,,,,,,,,,,,,,,,,,,839012,001,2025-09-26_10h28.37.593,Priming_gender,,2025.1.1,60.31504965601714,2025-09-26 10h28.54.095206 +0700,
นเรศ,พิมพ์ใจ,women.png,นเรศ,men.png,นเรศ,10,51,101,7,7,5,j,0.13032470003236085,None,,,,5,7,7,1,,,,,3.9070320000173524,,,,,,,,,3.8983412000816315,3.9070320000173524,3.9070320000173524,3.9070320000173524,3.9070320000173524,4.053016300080344,j,0.13032470003236085,None,,,,,,,,,,,,,,,,,,,,,839012,001,2025-09-26_10h28.37.593,Priming_gender,,2025.1.1,60.31504965601714,2025-09-26 10h28.54.095206 +0700,
กฤษณะ,กาญจนา,men.png,กฤษณะ,men.png,กฤษณะ,10,50,100,8,8,2,j,0.17640730005223304,None,,,,2,8,8,0,,,,,4.091364599997178,,,,,,,,,4.0823654000414535,4.091364599997178,4.091364599997178,4.091364599997178,4.091364599997178,4.2692686000373214,j,0.17640730005223304,None,,,,,,,,,,,,,,,,,,,,,839012,001,2025-09-26_10h28.37.593,Priming_gender,,2025.1.1,60.31504965601714,2025-09-26 10h28.54.095206 +0700,
นเรศ,พิมพ์ใจ,women.png,นเรศ,men.png,นเรศ,10,51,101,9,9,6,j,0.352723199990578,None,,,,6,9,9,1,,,,,4.3065128000453115,,,,,,,,,4.298057500040159,4.3065128000453115,4.3065128000453115,4.3065128000453115,4.3065128000453115,4.668804900022224,j,0.352723199990578,None,,,,,,,,,,,,,,,,,,,,,839012,001,2025-09-26_10h28.37.593,Priming_gender,,2025.1.1,60.31504965601714,2025-09-26 10h28.54.095206 +0700,
กฤษณะ,กาญจนา,men.png,กฤษณะ,men.png,กฤษณะ,10,50,100,10,10,3,j,0.11616859992500395,None,,,,3,10,10,0,,,,,4.707466299994849,,,,,,,,,4.698724600020796,4.707466299994849,4.707466299994849,4.707466299994849,4.707466299994849,4.834694000077434,j,0.11616859992500395,None,,,,,,,,,,,,,,,,,,,,,839012,001,2025-09-26_10h28.37.593,Priming_gender,,2025.1.1,60.31504965601714,2025-09-26 10h28.54.095206 +0700,
กฤษณะ,กาญจนา,men.png,กฤษณะ,men.png,กฤษณะ,10,50,100,11,11,4,j,0.11443890002556145,None,,,,4,11,11,0,,,,,4.875664200051688,,,,,,,,,4.866879199980758,4.875664200051688,4.875664200051688,4.875664200051688,4.875664200051688,5.003141100052744,j,0.11443890002556145,None,,,,,,,,,,,,,,,,,,,,,839012,001,2025-09-26_10h28.37.593,Priming_gender,,2025.1.1,60.31504965601714,2025-09-26 10h28.54.095206 +0700,
นเรศ,พิมพ์ใจ,women.png,นเรศ,men.png,นเรศ,10,51,101,12,12,7,j,0.11025619995780289,None,,,,7,12,12,1,,,,,5.041770900017582,,,,,,,,,5.0328249000012875,5.041770900017582,5.041770900017582,5.041770900017582,5.041770900017582,5.168931400054134,j,0.11025619995780289,None,,,,,,,,,,,,,,,,,,,,,839012,001,2025-09-26_10h28.37.593,Priming_gender,,2025.1.1,60.31504965601714,2025-09-26 10h28.54.095206 +0700,
นเรศ,พิมพ์ใจ,women.png,นเรศ,men.png,นเรศ,10,51,101,13,13,8,j,0.10976439993828535,None,,,,8,13,13,1,,,,,5.214881699997932,,,,,,,,,5.2055837999796495,5.214881699997932,5.214881699997932,5.214881699997932,5.214881699997932,5.3368353000842035,j,0.10976439993828535,None,,,,,,,,,,,,,,,,,,,,,839012,001,2025-09-26_10h28.37.593,Priming_gender,,2025.1.1,60.31504965601714,2025-09-26 10h28.54.095206 +0700,
กฤษณะ,กาญจนา,men.png,กฤษณะ,men.png,กฤษณะ,10,50,100,14,14,5,j,0.12317230005282909,None,,,,5,14,14,0,,,,,5.375108300009742,,,,,,,,,5.366335100028664,5.375108300009742,5.375108300009742,5.375108300009742,5.375108300009742,5.502355800010264,j,0.12317230005282909,None,,,,,,,,,,,,,,,,,,,,,839012,001,2025-09-26_10h28.37.593,Priming_gender,,2025.1.1,60.31504965601714,2025-09-26 10h28.54.095206 +0700,
นเรศ,พิมพ์ใจ,women.png,นเรศ,men.png,นเรศ,10,51,101,15,15,9,j,0.1299280000384897,None,,,,9,15,15,1,,,,,5.540963000035845,,,,,,,,,5.531849800026976,5.540963000035845,5.540963000035845,5.540963000035845,5.540963000035845,5.684893700061366,j,0.1299280000384897,None,,,,,,,,,,,,,,,,,,,,,839012,001,2025-09-26_10h28.37.593,Priming_gender,,2025.1.1,60.31504965601714,2025-09-26 10h28.54.095206 +0700,
กฤษณะ,กาญจนา,men.png,กฤษณะ,men.png,กฤษณะ,10,50,100,16,16,6,k,0.283938099979423,None,,,,6,16,16,0,,,,,5.725666700047441,,,,,,,,,5.71645080007147,5.725666700047441,5.725666700047441,5.725666700047441,5.725666700047441,6.018087200005539,k,0.283938099979423,None,,,,,,,,,,,,,,,,,,,,,839012,001,2025-09-26_10h28.37.593,Priming_gender,,2025.1.1,60.31504965601714,2025-09-26 10h28.54.095206 +0700,
กฤษณะ,กาญจนา,men.png,กฤษณะ,men.png,กฤษณะ,10,50,100,17,17,7,k,0.19544270006008446,None,,,,7,17,17,0,,,,,6.0555451000109315,,,,,,,,,6.04657720006071,6.0555451000109315,6.0555451000109315,6.0555451000109315,6.0555451000109315,6.26884700008668,k,0.19544270006008446,None,,,,,,,,,,,,,,,,,,,,,839012,001,2025-09-26_10h28.37.593,Priming_gender,,2025.1.1,60.31504965601714,2025-09-26 10h28.54.095206 +0700,
กฤษณะ,กาญจนา,men.png,กฤษณะ,men.png,กฤษณะ,10,50,100,18,18,8,k,0.09961140004452318,None,,,,8,18,18,0,,,,,6.309511200059205,,,,,,,,,6.301551699987613,6.309511200059205,6.309511200059205,6.309511200059205,6.309511200059205,6.419690300012007,k,0.09961140004452318,None,,,,,,,,,,,,,,,,,,,,,839012,001,2025-09-26_10h28.37.593,Priming_gender,,2025.1.1,60.31504965601714,2025-09-26 10h28.54.095206 +0700,
กฤษณะ,กาญจนา,men.png,กฤษณะ,men.png,กฤษณะ,10,50,100,19,19,9,k,0.1295609000371769,None,,,,9,19,19,0,,,,,6.458228199975565,,,,,,,,,6.449308200040832,6.458228199975565,6.458228199975565,6.458228199975565,6.458228199975565,6.601848400081508,k,0.1295609000371769,None,,,,,,,,,,,,,,,,,,,,,839012,001,2025-09-26_10h28.37.593,Priming_gender,,2025.1.1,60.31504965601714,2025-09-26 10h28.54.095206 +0700,
กฤษณะ,กาญจนา,men.png,กฤษณะ,men.png,กฤษณะ,10,50,100,20,20,10,k,0.12058410001918674,None,,,,10,20,20,0,,,,,6.639832400018349,,,,,,,,,6.631445600069128,6.639832400018349,6.639832400018349,6.639832400018349,6.639832400018349,6.7686220000032336,k,0.12058410001918674,None,,,,,,,,,,,,,,,,,,,,,839012,001,2025-09-26_10h28.37.593,Priming_gender,,2025.1.1,60.31504965601714,2025-09-26 10h28.54.095206 +0700,
นเรศ,พิมพ์ใจ,women.png,นเรศ,men.png,นเรศ,10,51,101,21,21,10,j,1.8558791000396013,None,,,,10,21,21,1,,,,,6.812130699981935,,,,,,,,,6.8039086000062525,6.812130699981935,6.812130699981935,6.812130699981935,6.812130699981935,8.684405900072306,j,1.8558791000396013,None,,,,,,,,,,,,,,,,,,,,,839012,001,2025-09-26_10h28.37.593,Priming_gender,,2025.1.1,60.31504965601714,2025-09-26 10h28.54.095206 +0700,
นเรศ,พิมพ์ใจ,women.png,นเรศ,men.png,นเรศ,10,51,101,22,22,11,j,0.5300238999770954,None,,,,11,22,22,1,,,,,8.722656200057827,,,,,,,,,8.713980300002731,8.722656200057827,8.722656200057827,8.722656200057827,8.722656200057827,9.268033200060017,j,0.5300238999770954,None,,,,,,,,,,,,,,,,,,,,,839012,001,2025-09-26_10h28.37.593,Priming_gender,,2025.1.1,60.31504965601714,2025-09-26 10h28.54.095206 +0700,
กฤษณะ,กาญจนา,men.png,กฤษณะ,men.png,กฤษณะ,10,50,100,23,23,11,k,0.5492126999888569,None,,,,11,23,23,0,,,,,9.306377200060524,,,,,,,,,9.29820890002884,9.306377200060524,9.306377200060524,9.306377200060524,9.306377200060524,9.86752470000647,k,0.5492126999888569,None,,,,,,,,,,,,,,,,,,,,,839012,001,2025-09-26_10h28.37.593,Priming_gender,,2025.1.1,60.31504965601714,2025-09-26 10h28.54.095206 +0700,
นเรศ,พิมพ์ใจ,women.png,นเรศ,men.png,นเรศ,10,51,101,24,24,12,k,0.2556863999925554,None,,,,12,24,24,1,,,,,9.907062600017525,,,,,,,,,9.89815590006765,9.907062600017525,9.907062600017525,9.907062600017525,9.907062600017525,10.167498600087129,k,0.2556863999925554,None,,,,,,,,,,,,,,,,,,,,,839012,001,2025-09-26_10h28.37.593,Priming_gender,,2025.1.1,60.31504965601714,2025-09-26 10h28.54.095206 +0700,
กฤษณะ,กาญจนา,men.png,กฤษณะ,men.png,กฤษณะ,10,50,100,25,25,12,k,0.16354540002066642,None,,,,12,25,25,0,,,,,10.205353499972261,,,,,,,,,10.196759600075893,10.205353499972261,10.205353499972261,10.205353499972261,10.205353499972261,10.38392669998575,k,0.16354540002066642,None,,,,,,,,,,,,,,,,,,,,,839012,001,2025-09-26_10h28.37.593,Priming_gender,,2025.1.1,60.31504965601714,2025-09-26 10h28.54.095206 +0700,
กฤษณะ,กาญจนา,men.png,กฤษณะ,men.png,กฤษณะ,10,50,100,26,26,13,k,0.07842979999259114,None,,,,13,26,26,0,,,,,10.422336500021629,,,,,,,,,10.413476400077343,10.422336500021629,10.422336500021629,10.422336500021629,10.422336500021629,10.502172200009227,k,0.07842979999259114,None,,,,,,,,,,,,,,,,,,,,,839012,001,2025-09-26_10h28.37.593,Priming_gender,,2025.1.1,60.31504965601714,2025-09-26 10h28.54.095206 +0700,
นเรศ,พิมพ์ใจ,women.png,นเรศ,men.png,นเรศ,10,51,101,27,27,13,k,0.21295160008594394,None,,,,13,27,27,1,,,,,10.54055849998258,,,,,,,,,10.531851800042205,10.54055849998258,10.54055849998258,10.54055849998258,10.54055849998258,10.767636400065385,k,0.21295160008594394,None,,,,,,,,,,,,,,,,,,,,,839012,001,2025-09-26_10h28.37.593,Priming_gender,,2025.1.1,60.31504965601714,2025-09-26 10h28.54.095206 +0700,
กฤษณะ,กาญจนา,men.png,กฤษณะ,men.png,กฤษณะ,10,50,100,28,28,14,k,0.9079788000090048,None,,,,14,28,28,0,,,,,10.807147299987264,,,,,,,,,10.798182300059125,10.807147299987264,10.807147299987264,10.807147299987264,10.807147299987264,11.718101600068621,k,0.9079788000090048,None,,,,,,,,,,,,,,,,,,,,,839012,001,2025-09-26_10h28.37.593,Priming_gender,,2025.1.1,60.31504965601714,2025-09-26 10h28.54.095206 +0700,
กฤษณะ,กาญจนา,men.png,กฤษณะ,men.png,กฤษณะ,10,50,100,29,29,15,k,0.35071269993204623,None,,,,15,29,29,0,,,,,11.75742929999251,,,,,,,,,11.74848780001048,11.75742929999251,11.75742929999251,11.75742929999251,11.75742929999251,12.117410200065933,k,0.35071269993204623,None,,,,,,,,,,,,,,,,,,,,,839012,001,2025-09-26_10h28.37.593,Priming_gender,,2025.1.1,60.31504965601714,2025-09-26 10h28.54.095206 +0700,
นเรศ,พิมพ์ใจ,women.png,นเรศ,men.png,นเรศ,10,51,101,30,30,14,k,0.5197318999562413,None,,,,14,30,30,1,,,,,12.154851700062864,,,,,,,,,12.145908700069413,12.154851700062864,12.154851700062864,12.154851700062864,12.154851700062864,12.683857100084424,k,0.5197318999562413,None,,,,,,,,,,,,,,,,,,,,,839012,001,2025-09-26_10h28.37.593,Priming_gender,,2025.1.1,60.31504965601714,2025-09-26 10h28.54.095206 +0700,
นเรศ,พิมพ์ใจ,women.png,นเรศ,men.png,นเรศ,10,51,101,31,31,15,j,5.163001599954441,None,,,,15,31,31,1,,,,,12.721523100044578,,,,,,,,,12.712358899996616,12.721523100044578,12.721523100044578,12.721523100044578,12.721523100044578,17.900419300072826,j,5.163001599954441,None,,,,,,,,,,,,,,,,,,,,,839012,001,2025-09-26_10h28.37.593,Priming_gender,,2025.1.1,60.31504965601714,2025-09-26 10h28.54.095206 +0700,
กฤษณะ,กาญจนา,men.png,กฤษณะ,men.png,กฤษณะ,10,50,100,32,32,16,j,0.27276130008976907,None,,,,16,32,32,0,,,,,17.937029400025494,,,,,,,,,17.927919800044037,17.937029400025494,17.937029400025494,17.937029400025494,17.937029400025494,18.2165648000082,j,0.27276130008976907,None,,,,,,,,,,,,,,,,,,,,,839012,001,2025-09-26_10h28.37.593,Priming_gender,,2025.1.1,60.31504965601714,2025-09-26 10h28.54.095206 +0700,
กฤษณะ,กาญจนา,men.png,กฤษณะ,men.png,กฤษณะ,10,50,100,33,33,17,k,0.3273338999133557,None,,,,17,33,33,0,,,,,18.25334160006605,,,,,,,,,18.244724599993788,18.25334160006605,18.25334160006605,18.25334160006605,18.25334160006605,18.584067000076175,k,0.3273338999133557,None,,,,,,,,,,,,,,,,,,,,,839012,001,2025-09-26_10h28.37.593,Priming_gender,,2025.1.1,60.31504965601714,2025-09-26 10h28.54.095206 +0700,
กฤษณะ,กาญจนา,men.png,กฤษณะ,men.png,กฤษณะ,10,50,100,34,34,18,k,0.20838269998785108,None,,,,18,34,34,0,,,,,18.622249700012617,,,,,,,,,18.612432099995203,18.622249700012617,18.622249700012617,18.622249700012617,18.622249700012617,18.835788000025786,k,0.20838269998785108,None,,,,,,,,,,,,,,,,,,,,,839012,001,2025-09-26_10h28.37.593,Priming_gender,,2025.1.1,60.31504965601714,2025-09-26 10h28.54.095206 +0700,
กฤษณะ,กาญจนา,men.png,กฤษณะ,men.png,กฤษณะ,10,50,100,35,35,19,k,0.2981046000495553,None,,,,19,35,35,0,,,,,18.87162079999689,,,,,,,,,18.862965299980715,18.87162079999689,18.87162079999689,18.87162079999689,18.87162079999689,19.18439140007831,k,0.2981046000495553,None,,,,,,,,,,,,,,,,,,,,,839012,001,2025-09-26_10h28.37.593,Priming_gender,,2025.1.1,60.31504965601714,2025-09-26 10h28.54.095206 +0700,
นเรศ,พิมพ์ใจ,women.png,นเรศ,men.png,นเรศ,10,51,101,36,36,16,k,0.20447470003273338,None,,,,16,36,36,1,,,,,19.220812499988824,,,,,,,,,19.21155110001564,19.220812499988824,19.220812499988824,19.220812499988824,19.220812499988824,19.433923300006427,k,0.20447470003273338,None,,,,,,,,,,,,,,,,,,,,,839012,001,2025-09-26_10h28.37.593,Priming_gender,,2025.1.1,60.31504965601714,2025-09-26 10h28.54.095206 +0700,
นเรศ,พิมพ์ใจ,women.png,นเรศ,men.png,นเรศ,10,51,101,37,37,17,k,0.11344570002984256,None,,,,17,37,37,1,,,,,19.474386600079015,,,,,,,,,19.465649800025858,19.474386600079015,19.474386600079015,19.474386600079015,19.474386600079015,19.601830500061624,k,0.11344570002984256,None,,,,,,,,,,,,,,,,,,,,,839012,001,2025-09-26_10h28.37.593,Priming_gender,,2025.1.1,60.31504965601714,2025-09-26 10h28.54.095206 +0700,
นเรศ,พิมพ์ใจ,women.png,นเรศ,men.png,นเรศ,10,51,101,38,38,18,k,0.24849789997097105,None,,,,18,38,38,1,,,,,19.64003110001795,,,,,,,,,19.631829200079665,19.64003110001795,19.64003110001795,19.64003110001795,19.64003110001795,19.901433399994858,k,0.24849789997097105,None,,,,,,,,,,,,,,,,,,,,,839012,001,2025-09-26_10h28.37.593,Priming_gender,,2025.1.1,60.31504965601714,2025-09-26 10h28.54.095206 +0700,
นเรศ,พิมพ์ใจ,women.png,นเรศ,men.png,นเรศ,10,51,101,39,39,19,k,0.13804430002346635,None,,,,19,39,39,1,,,,,19.940436500008218,,,,,,,,,19.9327322000172,19.940436500008218,19.940436500008218,19.940436500008218,19.940436500008218,20.084212300018407,k,0.13804430002346635,None,,,,,,,,,,,,,,,,,,,,,839012,001,2025-09-26_10h28.37.593,Priming_gender,,2025.1.1,60.31504965601714,2025-09-26 10h28.54.095206 +0700,
,,,,,,,,,,,,,,,,,,,,,,,,,,,,,,,,,,,,,,,,,,,,20.084397900034674,20.102160100010224,20.102160100010224,38.13460790005047,space,18.026520899962634,None,,,,,,,,,,,,,,839012,001,2025-09-26_10h28.37.593,Priming_gender,,2025.1.1,60.31504965601714,2025-09-26 10h28.54.095206 +0700,
None,None,None,None,women.png,จิตติมา,11,66,136,0,0,0,,,,j,1.0323260999284685,None,,,,,0,0,0,36,38.299278200021945,,,,,,,,,,,,,,,,,,,,,,,,,38.282438500085846,38.299278200021945,38.299278200021945,38.299278200021945,38.299278200021945,38.299278200021945,38.299278200021945,38.44880470004864,38.59954089997336,39.33288080000784,j,1.0323260999284685,None,839012,001,2025-09-26_10h28.37.593,Priming_gender,,2025.1.1,60.31504965601714,2025-09-26 10h28.54.095206 +0700,
None,None,None,สุนิสา,men.png,สุนิสา,10,68,118,1,1,0,,,,j,0.7519939999328926,None,,,,,0,1,1,18,39.44838710001204,,,,,,,,,,,,,,,,,,,,,,,,,39.435684200027026,39.44838710001204,39.44838710001204,39.44838710001204,39.44838710001204,39.44838710001204,39.44838710001204,39.64841470005922,39.749439700040966,40.215383299975656,j,0.7519939999328926,None,839012,001,2025-09-26_10h28.37.593,Priming_gender,,2025.1.1,60.31504965601714,2025-09-26 10h28.54.095206 +0700,
ศักดิ์สิทธิ์,สุนิสา,None,ศักดิ์สิทธิ์,men.png,ศักดิ์สิทธิ์,10,58,108,2,2,0,,,,j,0.9551319000311196,None,,,,,0,2,2,8,40.420255100005306,,,,,,,,,,,,,,,,,,,,,,,,,40.40888450003695,40.420255100005306,40.420255100005306,40.420255100005306,40.420255100005306,40.420255100005306,40.420255100005306,40.516903900075704,40.73427460005041,41.38263230002485,j,0.9551319000311196,None,839012,001,2025-09-26_10h28.37.593,Priming_gender,,2025.1.1,60.31504965601714,2025-09-26 10h28.54.095206 +0700,
None,None,None,None,women.png,สุพัตรา,11,63,133,3,3,0,,,,j,1.0761198999825865,None,,,,,0,3,3,33,41.482111699995585,,,,,,,,,,,,,,,,,,,,,,,,,41.47073070006445,41.482111699995585,41.482111699995585,41.482111699995585,41.482111699995585,41.482111699995585,41.482111699995585,41.684807599987835,41.78366900002584,42.5655905000167,j,1.0761198999825865,None,839012,001,2025-09-26_10h28.37.593,Priming_gender,,2025.1.1,60.31504965601714,2025-09-26 10h28.54.095206 +0700,
วรพล,วรรณา,None,วรพล,men.png,วรพล,10,57,107,4,4,0,,,,k,0.8543679999420419,None,,,,,0,4,4,7,42.657562599983066,,,,,,,,,,,,,,,,,,,,,,,,,42.64554150006734,42.657562599983066,42.657562599983066,42.657562599983066,42.657562599983066,42.657562599983066,42.657562599983066,42.866530300001614,42.96746389998589,43.51553309999872,k,0.8543679999420419,None,839012,001,2025-09-26_10h28.37.593,Priming_gender,,2025.1.1,60.31504965601714,2025-09-26 10h28.54.095206 +0700,
ชัยวัฒน์,ศิริพร,None,ชัยวัฒน์,men.png,ชัยวัฒน์,10,54,104,5,5,0,,,,k,1.013740900089033,None,,,,,0,5,5,4,43.647057000081986,,,,,,,,,,,,,,,,,,,,,,,,,43.63534889998846,43.647057000081986,43.647057000081986,43.647057000081986,43.647057000081986,43.647057000081986,43.647057000081986,43.816738400026225,43.949946200009435,44.66510980005842,k,1.013740900089033,None,839012,001,2025-09-26_10h28.37.593,Priming_gender,,2025.1.1,60.31504965601714,2025-09-26 10h28.54.095206 +0700,
None,None,None,None,women.png,ภูมิพัฒน์,11,56,126,6,6,0,,,,j,2.1202752999961376,None,,,,,0,6,6,26,44.745638300082646,,,,,,,,,,,,,,,,,,,,,,,,,44.7326480000047,44.745638300082646,44.745638300082646,44.745638300082646,44.745638300082646,44.745638300082646,44.745638300082646,44.965562500059605,45.050273500033654,46.88204499997664,j,2.1202752999961376,None,839012,001,2025-09-26_10h28.37.593,Priming_gender,,2025.1.1,60.31504965601714,2025-09-26 10h28.54.095206 +0700,
None,None,None,กาญจนา,men.png,กาญจนา,10,60,110,7,7,0,,,,j,1.135089199990034,None,,,,,0,7,7,10,46.97910960006993,,,,,,,,,,,,,,,,,,,,,,,,,46.966607599984854,46.97910960006993,46.97910960006993,46.97910960006993,46.97910960006993,46.97910960006993,46.97910960006993,47.18274640000891,47.281628599972464,48.1155939999735,j,1.135089199990034,None,839012,001,2025-09-26_10h28.37.593,Priming_gender,,2025.1.1,60.31504965601714,2025-09-26 10h28.54.095206 +0700,
None,None,None,None,women.png,ชัยวัฒน์,11,54,124,8,8,0,,,,j,1.2068859999999404,None,,,,,0,8,8,24,48.15786919998936,,,,,,,,,,,,,,,,,,,,,,,,,48.145299699972384,48.15786919998936,48.15786919998936,48.15786919998936,48.15786919998936,48.15786919998936,48.15786919998936,48.41645250003785,48.466128700063564,49.365673499996774,j,1.2068859999999404,None,839012,001,2025-09-26_10h28.37.593,Priming_gender,,2025.1.1,60.31504965601714,2025-09-26 10h28.54.095206 +0700,
None,None,None,None,women.png,ศักดิ์สิทธิ์,11,58,128,9,9,0,,,,j,0.8829215000150725,None,,,,,0,9,9,28,49.40749260003213,,,,,,,,,,,,,,,,,,,,,,,,,49.3961998000741,49.40749260003213,49.40749260003213,49.40749260003213,49.40749260003213,49.40749260003213,49.40749260003213,49.665141400066204,49.71533610008191,50.29845860006753,j,0.8829215000150725,None,839012,001,2025-09-26_10h28.37.593,Priming_gender,,2025.1.1,60.31504965601714,2025-09-26 10h28.54.095206 +0700,
None,None,None,None,women.png,นเรศ,11,51,121,10,10,0,,,,j,0.5491285000462085,None,,,,,0,10,10,21,50.35736080002971,,,,,,,,,,,,,,,,,,,,,,,,,50.341775099979714,50.35736080002971,50.35736080002971,50.35736080002971,50.35736080002971,50.35736080002971,50.35736080002971,50.59848510008305,50.66537609999068,50.91666750004515,j,0.5491285000462085,None,839012,001,2025-09-26_10h28.37.593,Priming_gender,,2025.1.1,60.31504965601714,2025-09-26 10h28.54.095206 +0700,
กฤษณะ,กาญจนา,men.png,กฤษณะ,men.png,กฤษณะ,10,50,100,11,11,0,,,,j,0.4334783999947831,None,,,,,0,11,11,0,51.08365180005785,,,,,,,,,,,,,,,,,,,,,,,,,51.072210300015286,51.08365180005785,51.08365180005785,51.08365180005785,51.08365180005785,51.08365180005785,51.08365180005785,51.23179049999453,51.39831000007689,51.53341739997268,j,0.4334783999947831,None,839012,001,2025-09-26_10h28.37.593,Priming_gender,,2025.1.1,60.31504965601714,2025-09-26 10h28.54.095206 +0700,
None,None,None,None,women.png,ธนพล,11,52,122,12,12,0,,,,j,0.43870269996114075,None,,,,,0,12,12,22,51.57310150004923,,,,,,,,,,,,,,,,,,,,,,,,,51.56257850001566,51.57310150004923,51.57310150004923,51.57310150004923,51.57310150004923,51.57310150004923,51.57310150004923,51.84938470006455,51.88134700001683,52.01538790005725,j,0.43870269996114075,None,839012,001,2025-09-26_10h28.37.593,Priming_gender,,2025.1.1,60.31504965601714,2025-09-26 10h28.54.095206 +0700,
None,None,None,ศิริพร,men.png,ศิริพร,10,64,114,13,13,0,,,,j,0.5177573999390006,None,,,,,0,13,13,14,52.05579670006409,,,,,,,,,,,,,,,,,,,,,,,,,52.04537479998544,52.05579670006409,52.05579670006409,52.05579670006409,52.05579670006409,52.05579670006409,52.05579670006409,52.3153107999824,52.36491870007012,52.581685599987395,j,0.5177573999390006,None,839012,001,2025-09-26_10h28.37.593,Priming_gender,,2025.1.1,60.31504965601714,2025-09-26 10h28.54.095206 +0700,
None,None,None,วาสนา,men.png,วาสนา,10,62,112,14,14,0,,,,j,0.4099306999705732,None,,,,,0,14,14,12,52.62201210006606,,,,,,,,,,,,,,,,,,,,,,,,,52.61046290001832,52.62201210006606,52.62201210006606,52.62201210006606,52.62201210006606,52.62201210006606,52.62201210006606,52.882669700076804,52.93204860005062,53.04847310006153,j,0.4099306999705732,None,839012,001,2025-09-26_10h28.37.593,Priming_gender,,2025.1.1,60.31504965601714,2025-09-26 10h28.54.095206 +0700,
None,None,None,None,women.png,ปัทมา,11,69,139,15,15,0,,,,j,8.881581699941307,None,,,,,0,15,15,39,53.138705800054595,,,,,,,,,,,,,,,,,,,,,,,,,53.127070200047456,53.138705800054595,53.138705800054595,53.138705800054595,53.138705800054595,53.138705800054595,53.138705800054595,53.34893209999427,53.448158200015314,62.03176170005463,j,8.881581699941307,None,839012,001,2025-09-26_10h28.37.593,Priming_gender,,2025.1.1,60.31504965601714,2025-09-26 10h28.54.095206 +0700,
None,None,None,None,women.png,กฤษณะ,11,50,120,16,16,0,,,,j,0.7521139000309631,None,,,,,0,16,16,20,62.07202730001882,,,,,,,,,,,,,,,,,,,,,,,,,62.06053460005205,62.07202730001882,62.07202730001882,62.07202730001882,62.07202730001882,62.07202730001882,62.07202730001882,62.347175600007176,62.380881900084205,62.831047800020315,j,0.7521139000309631,None,839012,001,2025-09-26_10h28.37.593,Priming_gender,,2025.1.1,60.31504965601714,2025-09-26 10h28.54.095206 +0700,
None,None,None,วรรณา,men.png,วรรณา,10,67,117,17,17,0,,,,j,1.9193084000144154,None,,,,,0,17,17,17,62.871922100079246,,,,,,,,,,,,,,,,,,,,,,,,,62.86181829997804,62.871922100079246,62.871922100079246,62.871922100079246,62.871922100079246,62.871922100079246,62.871922100079246,63.13214440003503,63.18212700006552,64.79767390002962,j,1.9193084000144154,None,839012,001,2025-09-26_10h28.37.593,Priming_gender,,2025.1.1,60.31504965601714,2025-09-26 10h28.54.095206 +0700,
None,None,None,None,women.png,ปริญญา,11,55,125,18,18,0,,,,j,0.6486586999380961,None,,,,,0,18,18,25,64.8389627999859,,,,,,,,,,,,,,,,,,,,,,,,,64.82735989999492,64.8389627999859,64.8389627999859,64.8389627999859,64.8389627999859,64.8389627999859,64.8389627999859,65.09894719999284,65.14731080003548,65.49767180008348,j,0.6486586999380961,None,839012,001,2025-09-26_10h28.37.593,Priming_gender,,2025.1.1,60.31504965601714,2025-09-26 10h28.54.095206 +0700,
None,None,None,None,women.png,วรพล,11,57,127,19,19,0,,,,j,0.10678559995722026,None,,,,,0,19,19,27,65.53885030001402,,,,,,,,,,,,,,,,,,,,,,,,,65.5282823999878,65.53885030001402,65.53885030001402,65.53885030001402,65.53885030001402,65.53885030001402,65.53885030001402,,,65.64671710005496,j,0.10678559995722026,None,839012,001,2025-09-26_10h28.37.593,Priming_gender,,2025.1.1,60.31504965601714,2025-09-26 10h28.54.095206 +0700,
อรรถพล,สุพัตรา,None,อรรถพล,men.png,อรรถพล,10,53,103,20,20,0,,,,j,0.5253314001020044,None,,,,,0,20,20,3,65.74494110001251,,,,,,,,,,,,,,,,,,,,,,,,,65.73219360003714,65.74494110001251,65.74494110001251,65.74494110001251,65.74494110001251,65.74494110001251,65.74494110001251,65.94785870006308,66.04775790008716,66.2805851000594,j,0.5253314001020044,None,839012,001,2025-09-26_10h28.37.593,Priming_gender,,2025.1.1,60.31504965601714,2025-09-26 10h28.54.095206 +0700,
None,None,None,None,women.png,วาสนา,11,62,132,21,21,0,,,,j,0.3778533000731841,None,,,,,0,21,21,32,66.32068880007137,,,,,,,,,,,,,,,,,,,,,,,,,66.30985359998886,66.32068880007137,66.32068880007137,66.32068880007137,66.32068880007137,66.32068880007137,66.32068880007137,66.58018000004813,66.63059239997528,66.71386460005306,j,0.3778533000731841,None,839012,001,2025-09-26_10h28.37.593,Priming_gender,,2025.1.1,60.31504965601714,2025-09-26 10h28.54.095206 +0700,
None,None,None,None,women.png,วรรณา,11,67,137,22,22,0,,,,j,1.1361159000080079,None,,,,,0,22,22,37,66.75344720005523,,,,,,,,,,,,,,,,,,,,,,,,,66.74294949998148,66.75344720005523,66.75344720005523,66.75344720005523,66.75344720005523,66.75344720005523,66.75344720005523,67.01433360006195,67.06485500000417,67.89798550005071,j,1.1361159000080079,None,839012,001,2025-09-26_10h28.37.593,Priming_gender,,2025.1.1,60.31504965601714,2025-09-26 10h28.54.095206 +0700,
นเรศ,พิมพ์ใจ,women.png,นเรศ,men.png,นเรศ,10,51,101,23,23,0,,,,k,1.6787151999305934,None,,,,,0,23,23,1,67.94102899997961,,,,,,,,,,,,,,,,,,,,,,,,,67.92850320006255,67.94102899997961,67.94102899997961,67.94102899997961,67.94102899997961,67.94102899997961,67.94102899997961,68.19870730000548,68.24755940004252,69.63028020004276,k,1.6787151999305934,None,839012,001,2025-09-26_10h28.37.593,Priming_gender,,2025.1.1,60.31504965601714,2025-09-26 10h28.54.095206 +0700,
None,None,None,ปัทมา,men.png,ปัทมา,10,69,119,24,24,0,,,,j,1.5755387999815866,None,,,,,0,24,24,19,69.67063270008657,,,,,,,,,,,,,,,,,,,,,,,,,69.65917730005458,69.67063270008657,69.67063270008657,69.67063270008657,69.67063270008657,69.67063270008657,69.67063270008657,69.92982120008674,69.98025230003987,71.24723570002243,j,1.5755387999815866,None,839012,001,2025-09-26_10h28.37.593,Priming_gender,,2025.1.1,60.31504965601714,2025-09-26 10h28.54.095206 +0700,
None,None,None,None,women.png,อาภรณ์,11,65,135,25,25,0,,,,j,1.5402843999909237,None,,,,,0,25,25,35,71.28723250003532,,,,,,,,,,,,,,,,,,,,,,,,,71.27626429998782,71.28723250003532,71.28723250003532,71.28723250003532,71.28723250003532,71.28723250003532,71.28723250003532,71.54806960001588,71.59691540000495,72.83032890001778,j,1.5402843999909237,None,839012,001,2025-09-26_10h28.37.593,Priming_gender,,2025.1.1,60.31504965601714,2025-09-26 10h28.54.095206 +0700,
ภูมิพัฒน์,จิตติมา,None,ภูมิพัฒน์,men.png,ภูมิพัฒน์,10,56,106,26,26,0,,,,j,1.1337305000051856,None,,,,,0,26,26,6,72.87287650001235,,,,,,,,,,,,,,,,,,,,,,,,,72.86137050006073,72.87287650001235,72.87287650001235,72.87287650001235,72.87287650001235,72.87287650001235,72.87287650001235,73.14678559999447,73.18025029997807,74.01352829998359,j,1.1337305000051856,None,839012,001,2025-09-26_10h28.37.593,Priming_gender,,2025.1.1,60.31504965601714,2025-09-26 10h28.54.095206 +0700,
None,None,None,None,women.png,อรรถพล,11,53,123,27,27,0,,,,k,0.941888100001961,None,,,,,0,27,27,23,74.05489360005595,,,,,,,,,,,,,,,,,,,,,,,,,74.04353570006788,74.05489360005595,74.05489360005595,74.05489360005595,74.05489360005595,74.05489360005595,74.05489360005595,74.31360870006029,74.36383629997727,74.99830790003762,k,0.941888100001961,None,839012,001,2025-09-26_10h28.37.593,Priming_gender,,2025.1.1,60.31504965601714,2025-09-26 10h28.54.095206 +0700,
None,None,None,None,women.png,ศิริพร,11,64,134,28,28,0,,,,k,0.7217851000605151,None,,,,,0,28,28,34,75.03771850001067,,,,,,,,,,,,,,,,,,,,,,,,,75.02654470002744,75.03771850001067,75.03771850001067,75.03771850001067,75.03771850001067,75.03771850001067,75.03771850001067,75.31342130003031,75.3480358000379,75.76462540007196,k,0.7217851000605151,None,839012,001,2025-09-26_10h28.37.593,Priming_gender,,2025.1.1,60.31504965601714,2025-09-26 10h28.54.095206 +0700,
None,None,None,อาภรณ์,men.png,อาภรณ์,10,65,115,29,29,0,,,,k,0.5802432999480516,None,,,,,0,29,29,15,75.8050743000349,,,,,,,,,,,,,,,,,,,,,,,,,75.79397360002622,75.8050743000349,75.8050743000349,75.8050743000349,75.8050743000349,75.8050743000349,75.8050743000349,76.08037370000966,76.11345409997739,76.3978145000292,k,0.5802432999480516,None,839012,001,2025-09-26_10h28.37.593,Priming_gender,,2025.1.1,60.31504965601714,2025-09-26 10h28.54.095206 +0700,
None,None,None,None,women.png,สุนิสา,11,68,138,30,30,0,,,,k,0.5083025000058115,None,,,,,0,30,30,38,76.44165609998163,,,,,,,,,,,,,,,,,,,,,,,,,76.42953950003721,76.44165609998163,76.44165609998163,76.44165609998163,76.44165609998163,76.44165609998163,76.44165609998163,76.71348060003947,76.74716090003494,76.96468740003183,k,0.5083025000058115,None,839012,001,2025-09-26_10h28.37.593,Priming_gender,,2025.1.1,60.31504965601714,2025-09-26 10h28.54.095206 +0700,
None,None,None,None,women.png,กาญจนา,11,60,130,31,31,0,,,,k,0.8408324999036267,None,,,,,0,31,31,30,77.0062312000664,,,,,,,,,,,,,,,,,,,,,,,,,76.99567890004255,77.0062312000664,77.0062312000664,77.0062312000664,77.0062312000664,77.0062312000664,77.0062312000664,77.27927230007481,77.31233900005464,77.86324510001577,k,0.8408324999036267,None,839012,001,2025-09-26_10h28.37.593,Priming_gender,,2025.1.1,60.31504965601714,2025-09-26 10h28.54.095206 +0700,
ปริญญา,อาภรณ์,None,ปริญญา,men.png,ปริญญา,10,55,105,32,32,0,,,,k,0.6717114999191836,None,,,,,0,32,32,5,77.90671020001173,,,,,,,,,,,,,,,,,,,,,,,,,77.89605980005581,77.90671020001173,77.90671020001173,77.90671020001173,77.90671020001173,77.90671020001173,77.90671020001173,78.1646599000087,78.21287930000108,78.57997920003254,k,0.6717114999191836,None,839012,001,2025-09-26_10h28.37.593,Priming_gender,,2025.1.1,60.31504965601714,2025-09-26 10h28.54.095206 +0700,
None,None,None,พิมพ์ใจ,men.png,พิมพ์ใจ,10,61,111,33,33,0,,,,j,0.8931337998947129,None,,,,,0,33,33,11,78.658043500036,,,,,,,,,,,,,,,,,,,,,,,,,78.6458756000502,78.658043500036,78.658043500036,78.658043500036,78.658043500036,78.658043500036,78.658043500036,78.88008230004925,78.96328140003607,79.56364349997602,j,0.8931337998947129,None,839012,001,2025-09-26_10h28.37.593,Priming_gender,,2025.1.1,60.31504965601714,2025-09-26 10h28.54.095206 +0700,
พิสิฐ,ปัทมา,None,พิสิฐ,men.png,พิสิฐ,10,59,109,34,34,0,,,,j,0.7968867000890896,None,,,,,0,34,34,9,79.6426216000691,,,,,,,,,,,,,,,,,,,,,,,,,79.63156200002413,79.6426216000691,79.6426216000691,79.6426216000691,79.6426216000691,79.6426216000691,79.6426216000691,79.8795047000749,79.94548640004359,80.44607130007353,j,0.7968867000890896,None,839012,001,2025-09-26_10h28.37.593,Priming_gender,,2025.1.1,60.31504965601714,2025-09-26 10h28.54.095206 +0700,
None,None,None,จิตติมา,men.png,จิตติมา,10,66,116,35,35,0,,,,j,0.6121905000181869,None,,,,,0,35,35,16,80.48381820006762,,,,,,,,,,,,,,,,,,,,,,,,,80.4735882000532,80.48381820006762,80.48381820006762,80.48381820006762,80.48381820006762,80.48381820006762,80.48381820006762,80.74744599999394,80.7973495000042,81.09699800005183,j,0.6121905000181869,None,839012,001,2025-09-26_10h28.37.593,Priming_gender,,2025.1.1,60.31504965601714,2025-09-26 10h28.54.095206 +0700,
ธนพล,วาสนา,None,ธนพล,men.png,ธนพล,10,52,102,36,36,0,,,,k,0.5187975000590086,None,,,,,0,36,36,2,81.13688220002223,,,,,,,,,,,,,,,,,,,,,,,,,81.12611120007932,81.13688220002223,81.13688220002223,81.13688220002223,81.13688220002223,81.13688220002223,81.13688220002223,81.3975695000263,81.4480501000071,81.6632752000587,k,0.5187975000590086,None,839012,001,2025-09-26_10h28.37.593,Priming_gender,,2025.1.1,60.31504965601714,2025-09-26 10h28.54.095206 +0700,
None,None,None,None,women.png,พิสิฐ,11,59,129,37,37,0,,,,k,0.4123163999756798,None,,,,,0,37,37,29,81.70318730000872,,,,,,,,,,,,,,,,,,,,,,,,,81.69249270006549,81.70318730000872,81.70318730000872,81.70318730000872,81.70318730000872,81.70318730000872,81.70318730000872,81.96476580004673,82.013030000031,82.12996350007597,k,0.4123163999756798,None,839012,001,2025-09-26_10h28.37.593,Priming_gender,,2025.1.1,60.31504965601714,2025-09-26 10h28.54.095206 +0700,
None,None,None,None,women.png,พิมพ์ใจ,11,61,131,38,38,0,,,,k,0.36985900008585304,None,,,,,0,38,38,31,82.17084749997593,,,,,,,,,,,,,,,,,,,,,,,,,82.15926159999799,82.17084749997593,82.17084749997593,82.17084749997593,82.17084749997593,82.17084749997593,82.17084749997593,82.43147150008008,82.48186000005808,82.54743630008306,k,0.36985900008585304,None,839012,001,2025-09-26_10h28.37.593,Priming_gender,,2025.1.1,60.31504965601714,2025-09-26 10h28.54.095206 +0700,
None,None,None,สุพัตรา,men.png,สุพัตรา,10,63,113,39,39,0,,,,k,0.253625400015153,None,,,,,0,39,39,13,82.5888834000798,,,,,,,,,,,,,,,,,,,,,,,,,82.57713480002712,82.5888834000798,82.5888834000798,82.5888834000798,82.5888834000798,82.5888834000798,82.5888834000798,82.88753990002442,,82.8471044000471,k,0.253625400015153,None,839012,001,2025-09-26_10h28.37.593,Priming_gender,,2025.1.1,60.31504965601714,2025-09-26 10h28.54.095206 +0700,
None,None,None,สุพัตรา,men.png,สุพัตรา,10,63,113,40,0,1,,,,k,0.22580800007563084,None,,,,,1,0,40,13,82.88753990002442,,,,,,,,,,,,,,,,,,,,,,,,,82.87666730000637,82.88753990002442,82.88753990002442,82.88753990002442,82.88753990002442,82.88753990002442,82.88753990002442,,,83.12978249997832,k,0.22580800007563084,None,839012,001,2025-09-26_10h28.37.593,Priming_gender,,2025.1.1,60.31504965601714,2025-09-26 10h28.54.095206 +0700,
None,None,None,None,women.png,วรพล,11,57,127,41,1,1,,,,j,0.5822994000045583,None,,,,,1,1,41,27,83.17263540008571,,,,,,,,,,,,,,,,,,,,,,,,,83.16038480005227,83.17263540008571,83.17263540008571,83.17263540008571,83.17263540008571,83.17263540008571,83.17263540008571,83.42983330006246,83.48052219999954,83.76355819997843,j,0.5822994000045583,None,839012,001,2025-09-26_10h28.37.593,Priming_gender,,2025.1.1,60.31504965601714,2025-09-26 10h28.54.095206 +0700,
None,None,None,None,women.png,สุนิสา,11,68,138,42,2,1,,,,j,0.4000256999861449,None,,,,,1,2,42,38,83.80372870003339,,,,,,,,,,,,,,,,,,,,,,,,,83.79135060007684,83.80372870003339,83.80372870003339,83.80372870003339,83.80372870003339,83.80372870003339,83.80372870003339,84.07953149999958,84.11266980005894,84.2134063000558,j,0.4000256999861449,None,839012,001,2025-09-26_10h28.37.593,Priming_gender,,2025.1.1,60.31504965601714,2025-09-26 10h28.54.095206 +0700,
None,None,None,พิมพ์ใจ,men.png,พิมพ์ใจ,10,61,111,43,3,1,,,,k,0.4052823999663815,None,,,,,1,3,43,11,84.252893100027,,,,,,,,,,,,,,,,,,,,,,,,,84.24228050000966,84.252893100027,84.252893100027,84.252893100027,84.252893100027,84.252893100027,84.252893100027,84.51361260004342,84.56274690001737,84.66287980007473,k,0.4052823999663815,None,839012,001,2025-09-26_10h28.37.593,Priming_gender,,2025.1.1,60.31504965601714,2025-09-26 10h28.54.095206 +0700,
None,None,None,None,women.png,นเรศ,11,51,121,44,4,1,,,,j,0.4672959999879822,None,,,,,1,4,44,21,84.70467720006127,,,,,,,,,,,,,,,,,,,,,,,,,84.692326300079,84.70467720006127,84.70467720006127,84.70467720006127,84.70467720006127,84.70467720006127,84.70467720006127,84.96411040006205,85.01327230001334,85.17986610007938,j,0.4672959999879822,None,839012,001,2025-09-26_10h28.37.593,Priming_gender,,2025.1.1,60.31504965601714,2025-09-26 10h28.54.095206 +0700,
None,None,None,วรรณา,men.png,วรรณา,10,67,117,45,5,1,,,,k,0.3147791000083089,None,,,,,1,5,45,17,85.22117320005782,,,,,,,,,,,,,,,,,,,,,,,,,85.21044559997972,85.22117320005782,85.22117320005782,85.22117320005782,85.22117320005782,85.22117320005782,85.22117320005782,85.4796561000403,85.53064830007497,85.54647419997491,k,0.3147791000083089,None,839012,001,2025-09-26_10h28.37.593,Priming_gender,,2025.1.1,60.31504965601714,2025-09-26 10h28.54.095206 +0700,
None,None,None,None,women.png,กาญจนา,11,60,130,46,6,1,,,,j,0.2650238999631256,None,,,,,1,6,46,30,85.58911820000503,,,,,,,,,,,,,,,,,,,,,,,,,85.57799450005405,85.58911820000503,85.58911820000503,85.58911820000503,85.58911820000503,85.58911820000503,85.58911820000503,85.84552700002678,,85.86420160008129,j,0.2650238999631256,None,839012,001,2025-09-26_10h28.37.593,Priming_gender,,2025.1.1,60.31504965601714,2025-09-26 10h28.54.095206 +0700,
None,None,None,None,women.png,ภูมิพัฒน์,11,56,126,47,7,1,,,,k,0.22514710004907101,None,,,,,1,7,47,26,85.90568199998233,,,,,,,,,,,,,,,,,,,,,,,,,85.89435000007506,85.90568199998233,85.90568199998233,85.90568199998233,85.90568199998233,85.90568199998233,85.90568199998233,,,86.14626539999153,k,0.22514710004907101,None,839012,001,2025-09-26_10h28.37.593,Priming_gender,,2025.1.1,60.31504965601714,2025-09-26 10h28.54.095206 +0700,
ภูมิพัฒน์,จิตติมา,None,ภูมิพัฒน์,men.png,ภูมิพัฒน์,10,56,106,48,8,1,,,,j,0.26327949995175004,None,,,,,1,8,48,6,86.18620290001854,,,,,,,,,,,,,,,,,,,,,,,,,86.17553850007243,86.18620290001854,86.18620290001854,86.18620290001854,86.18620290001854,86.18620290001854,86.18620290001854,86.44663750007749,,86.46367700002156,j,0.26327949995175004,None,839012,001,2025-09-26_10h28.37.593,Priming_gender,,2025.1.1,60.31504965601714,2025-09-26 10h28.54.095206 +0700,
None,None,None,None,women.png,ธนพล,11,52,122,49,9,1,,,,k,0.24638869997579604,None,,,,,1,9,49,22,86.5029799999902,,,,,,,,,,,,,,,,,,,,,,,,,86.49329979997128,86.5029799999902,86.5029799999902,86.5029799999902,86.5029799999902,86.5029799999902,86.5029799999902,86.80240310006775,,86.76272710005287,k,0.24638869997579604,None,839012,001,2025-09-26_10h28.37.593,Priming_gender,,2025.1.1,60.31504965601714,2025-09-26 10h28.54.095206 +0700,
None,None,None,วาสนา,men.png,วาสนา,10,62,112,50,10,1,,,,j,0.26716069993562996,None,,,,,1,10,50,12,86.80240310006775,,,,,,,,,,,,,,,,,,,,,,,,,86.793144700001,86.80240310006775,86.80240310006775,86.80240310006775,86.80240310006775,86.80240310006775,86.80240310006775,87.0644288000185,,87.08049359999131,j,0.26716069993562996,None,839012,001,2025-09-26_10h28.37.593,Priming_gender,,2025.1.1,60.31504965601714,2025-09-26 10h28.54.095206 +0700,
ศักดิ์สิทธิ์,สุนิสา,None,ศักดิ์สิทธิ์,men.png,ศักดิ์สิทธิ์,10,58,108,51,11,1,,,,k,0.781893500010483,None,,,,,1,11,51,8,87.12293419998605,,,,,,,,,,,,,,,,,,,,,,,,,87.11005740007386,87.12293419998605,87.12293419998605,87.12293419998605,87.12293419998605,87.12293419998605,87.12293419998605,87.38017270003911,87.43031580001116,87.91408740007319,k,0.781893500010483,None,839012,001,2025-09-26_10h28.37.593,Priming_gender,,2025.1.1,60.31504965601714,2025-09-26 10h28.54.095206 +0700,
None,None,None,None,women.png,ศิริพร,11,64,134,52,12,1,,,,k,0.4845793000422418,None,,,,,1,12,52,34,87.95466530008707,,,,,,,,,,,,,,,,,,,,,,,,,87.94389920006506,87.95466530008707,87.95466530008707,87.95466530008707,87.95466530008707,87.95466530008707,87.95466530008707,88.22927770006936,88.2630023000529,88.44617280003149,k,0.4845793000422418,None,839012,001,2025-09-26_10h28.37.593,Priming_gender,,2025.1.1,60.31504965601714,2025-09-26 10h28.54.095206 +0700,
None,None,None,None,women.png,ชัยวัฒน์,11,54,124,53,13,1,,,,k,0.5692171000409871,None,,,,,1,13,53,24,88.48701420007274,,,,,,,,,,,,,,,,,,,,,,,,,88.47691239998676,88.48701420007274,88.48701420007274,88.48701420007274,88.48701420007274,88.48701420007274,88.48701420007274,88.74598890007474,88.79745369998273,89.06438650004566,k,0.5692171000409871,None,839012,001,2025-09-26_10h28.37.593,Priming_gender,,2025.1.1,60.31504965601714,2025-09-26 10h28.54.095206 +0700,
กฤษณะ,กาญจนา,men.png,กฤษณะ,men.png,กฤษณะ,10,50,100,54,14,1,,,,k,0.5414371000370011,None,,,,,1,14,54,0,89.10445850004908,,,,,,,,,,,,,,,,,,,,,,,,,89.09359030006453,89.10445850004908,89.10445850004908,89.10445850004908,89.10445850004908,89.10445850004908,89.10445850004908,89.38035430002492,89.41360329999588,89.66256450000219,k,0.5414371000370011,None,839012,001,2025-09-26_10h28.37.593,Priming_gender,,2025.1.1,60.31504965601714,2025-09-26 10h28.54.095206 +0700,
None,None,None,None,women.png,ปริญญา,11,55,125,55,15,1,,,,k,0.6209974000230432,None,,,,,1,15,55,25,89.70093649998307,,,,,,,,,,,,,,,,,,,,,,,,,89.69041110004764,89.70093649998307,89.70093649998307,89.70093649998307,89.70093649998307,89.70093649998307,89.70093649998307,89.96307669999078,90.01251210004557,90.33053360006306,k,0.6209974000230432,None,839012,001,2025-09-26_10h28.37.593,Priming_gender,,2025.1.1,60.31504965601714,2025-09-26 10h28.54.095206 +0700,
พิสิฐ,ปัทมา,None,พิสิฐ,men.png,พิสิฐ,10,59,109,56,16,1,,,,k,0.4477255999809131,None,,,,,1,16,56,9,90.37486300000455,,,,,,,,,,,,,,,,,,,,,,,,,90.36403970001265,90.37486300000455,90.37486300000455,90.37486300000455,90.37486300000455,90.37486300000455,90.37486300000455,90.62902850005776,90.6790860000765,90.82893030007835,k,0.4477255999809131,None,839012,001,2025-09-26_10h28.37.593,Priming_gender,,2025.1.1,60.31504965601714,2025-09-26 10h28.54.095206 +0700,
None,None,None,สุนิสา,men.png,สุนิสา,10,68,118,57,17,1,,,,k,0.4281444000080228,None,,,,,1,17,57,18,90.86864210001659,,,,,,,,,,,,,,,,,,,,,,,,,90.85772139998153,90.86864210001659,90.86864210001659,90.86864210001659,90.86864210001659,90.86864210001659,90.86864210001659,91.12919080001302,91.17946780007333,91.29799960006494,k,0.4281444000080228,None,839012,001,2025-09-26_10h28.37.593,Priming_gender,,2025.1.1,60.31504965601714,2025-09-26 10h28.54.095206 +0700,
None,None,None,None,women.png,จิตติมา,11,66,136,58,18,1,,,,,,,,,,,1,18,58,36,91.33894310006872,,,,,,,,,,,,,,,,,,,,,,,,,91.32703220006078,91.33894310006872,91.33894310006872,91.33894310006872,91.33894310006872,91.33894310006872,91.33894310006872,91.61243570002262,91.6458712000167,,,,,,,,,,,,,
