Male,Female,Image,Name,ImagePriming,NamePriming,thisN,thisTrialN,thisRepN,key_resp.keys,key_resp.rt,key_resp.duration,key_resp_3.keys,key_resp_3.rt,key_resp_3.duration,training.thisRepN,training.thisTrialN,training.thisN,training.thisIndex,priming.thisRepN,priming.thisTrialN,priming.thisN,priming.thisIndex,thisRow.t,notes,training_Instruction.started,instruction_slide.started,instruction_continue.started,training_Instruction.stopped,instruction_continue.keys,instruction_continue.rt,instruction_continue.duration,training_block.started,MAN.started,WOMAN.started,pic.started,key_resp.started,training_block.stopped,training.key_resp.keys,training.key_resp.rt,training.key_resp.duration,priming_instruction.started,instruction_slide_2.started,instruction_continue_2.started,priming_instruction.stopped,instruction_continue_2.keys,instruction_continue_2.rt,instruction_continue_2.duration,priming_block.started,MAN_3.started,MAN_3_desc.started,WOMAN_3.started,name_2.started,key_resp_3.started,pic_2.started,name_2.stopped,priming_block.stopped,priming.key_resp_3.keys,priming.key_resp_3.rt,priming.key_resp_3.duration,participant,session,date,expName,expVersion,psychopyVersion,frameRate,expStart,
,,,,,,,,,,,,,,,,,,,,,,,,,0.008517200010828674,0.02903680002782494,0.02903680002782494,0.5339213999686763,space,0.4887188000138849,None,,,,,,,,,,,,,,,,,,,,,,,,,,,,,878070,001,2025-09-25_17h22.46.296,Priming_gender,,2025.1.1,59.86034578125833,2025-09-25 17h23.22.081020 +0700,
กฤษณะ,กาญจนา,men.png,กฤษณะ,men.png,กฤษณะ,0,0,0,j,0.6288229000056162,None,,,,0,0,0,0,,,,,0.5878770999843255,,,,,,,,,0.5760909999953583,0.5878770999843255,0.5878770999843255,0.5878770999843255,0.5878770999843255,1.2273792999330908,j,0.6288229000056162,None,,,,,,,,,,,,,,,,,,,,878070,001,2025-09-25_17h22.46.296,Priming_gender,,2025.1.1,59.86034578125833,2025-09-25 17h23.22.081020 +0700,
กฤษณะ,กาญจนา,men.png,กฤษณะ,men.png,กฤษณะ,1,1,1,k,0.07761839998420328,None,,,,1,1,1,0,,,,,1.2626619000220671,,,,,,,,,1.2542146999621764,1.2626619000220671,1.2626619000220671,1.2626619000220671,1.2626619000220671,1.344041100004688,k,0.07761839998420328,None,,,,,,,,,,,,,,,,,,,,878070,001,2025-09-25_17h22.46.296,Priming_gender,,2025.1.1,59.86034578125833,2025-09-25 17h23.22.081020 +0700,
กฤษณะ,กาญจนา,men.png,กฤษณะ,men.png,กฤษณะ,2,2,2,j,0.08447989996057004,None,,,,2,2,2,0,,,,,1.3781557999318466,,,,,,,,,1.3703760999487713,1.3781557999318466,1.3781557999318466,1.3781557999318466,1.3781557999318466,1.4781732999254018,j,0.08447989996057004,None,,,,,,,,,,,,,,,,,,,,878070,001,2025-09-25_17h22.46.296,Priming_gender,,2025.1.1,59.86034578125833,2025-09-25 17h23.22.081020 +0700,
นเรศ,พิมพ์ใจ,women.png,นเรศ,men.png,นเรศ,3,3,0,k,0.011637100018560886,None,,,,0,3,3,1,,,,,1.512699699960649,,,,,,,,,1.5047189999604598,1.512699699960649,1.512699699960649,1.512699699960649,1.512699699960649,1.5263345999410376,k,0.011637100018560886,None,,,,,,,,,,,,,,,,,,,,878070,001,2025-09-25_17h22.46.296,Priming_gender,,2025.1.1,59.86034578125833,2025-09-25 17h23.22.081020 +0700,
นเรศ,พิมพ์ใจ,women.png,นเรศ,men.png,นเรศ,4,4,1,j,0.06109370000194758,None,,,,1,4,4,1,,,,,1.5613527999958023,,,,,,,,,1.5533987999660894,1.5613527999958023,1.5613527999958023,1.5613527999958023,1.5613527999958023,1.6266788999782875,j,0.06109370000194758,None,,,,,,,,,,,,,,,,,,,,878070,001,2025-09-25_17h22.46.296,Priming_gender,,2025.1.1,59.86034578125833,2025-09-25 17h23.22.081020 +0700,
นเรศ,พิมพ์ใจ,women.png,นเรศ,men.png,นเรศ,5,5,2,k,0.05918590002693236,None,,,,2,5,5,1,,,,,1.6602225999813527,,,,,,,,,1.6526667999569327,1.6602225999813527,1.6602225999813527,1.6602225999813527,1.6602225999813527,1.7262379999738187,k,0.05918590002693236,None,,,,,,,,,,,,,,,,,,,,878070,001,2025-09-25_17h22.46.296,Priming_gender,,2025.1.1,59.86034578125833,2025-09-25 17h23.22.081020 +0700,
นเรศ,พิมพ์ใจ,women.png,นเรศ,men.png,นเรศ,6,6,3,j,0.015851199976168573,None,,,,3,6,6,1,,,,,1.7610617999453098,,,,,,,,,1.7524496000260115,1.7610617999453098,1.7610617999453098,1.7610617999453098,1.7610617999453098,1.7931440999964252,j,0.015851199976168573,None,,,,,,,,,,,,,,,,,,,,878070,001,2025-09-25_17h22.46.296,Priming_gender,,2025.1.1,59.86034578125833,2025-09-25 17h23.22.081020 +0700,
กฤษณะ,กาญจนา,men.png,กฤษณะ,men.png,กฤษณะ,7,7,3,k,0.04625719995237887,None,,,,3,7,7,0,,,,,1.828850399935618,,,,,,,,,1.8211231000022963,1.828850399935618,1.828850399935618,1.828850399935618,1.828850399935618,1.87686079996638,k,0.04625719995237887,None,,,,,,,,,,,,,,,,,,,,878070,001,2025-09-25_17h22.46.296,Priming_gender,,2025.1.1,59.86034578125833,2025-09-25 17h23.22.081020 +0700,
กฤษณะ,กาญจนา,men.png,กฤษณะ,men.png,กฤษณะ,8,8,4,j,0.02177390002179891,None,,,,4,8,8,0,,,,,1.910415199934505,,,,,,,,,1.9032344999723136,1.910415199934505,1.910415199934505,1.910415199934505,1.910415199934505,1.9433123000198975,j,0.02177390002179891,None,,,,,,,,,,,,,,,,,,,,878070,001,2025-09-25_17h22.46.296,Priming_gender,,2025.1.1,59.86034578125833,2025-09-25 17h23.22.081020 +0700,
กฤษณะ,กาญจนา,men.png,กฤษณะ,men.png,กฤษณะ,9,9,5,k,0.04260509996674955,None,,,,5,9,9,0,,,,,1.9822432999499142,,,,,,,,,1.9700742999557406,1.9822432999499142,1.9822432999499142,1.9822432999499142,1.9822432999499142,2.0264955000020564,k,0.04260509996674955,None,,,,,,,,,,,,,,,,,,,,878070,001,2025-09-25_17h22.46.296,Priming_gender,,2025.1.1,59.86034578125833,2025-09-25 17h23.22.081020 +0700,
นเรศ,พิมพ์ใจ,women.png,นเรศ,men.png,นเรศ,10,10,4,j,0.030304099898785353,None,,,,4,10,10,1,,,,,2.0596688999794424,,,,,,,,,2.0526495999656618,2.0596688999794424,2.0596688999794424,2.0596688999794424,2.0596688999794424,2.0932496999157593,j,0.030304099898785353,None,,,,,,,,,,,,,,,,,,,,878070,001,2025-09-25_17h22.46.296,Priming_gender,,2025.1.1,59.86034578125833,2025-09-25 17h23.22.081020 +0700,
กฤษณะ,กาญจนา,men.png,กฤษณะ,men.png,กฤษณะ,11,11,6,k,0.053566900081932545,None,,,,6,11,11,0,,,,,2.1275243000127375,,,,,,,,,2.1198893999680877,2.1275243000127375,2.1275243000127375,2.1275243000127375,2.1275243000127375,2.1930403999285772,k,0.053566900081932545,None,,,,,,,,,,,,,,,,,,,,878070,001,2025-09-25_17h22.46.296,Priming_gender,,2025.1.1,59.86034578125833,2025-09-25 17h23.22.081020 +0700,
นเรศ,พิมพ์ใจ,women.png,นเรศ,men.png,นเรศ,12,12,5,j,0.029512700042687356,None,,,,5,12,12,1,,,,,2.2270102999173105,,,,,,,,,2.2192035999614745,2.2270102999173105,2.2270102999173105,2.2270102999173105,2.2270102999173105,2.2599404000211507,j,0.029512700042687356,None,,,,,,,,,,,,,,,,,,,,878070,001,2025-09-25_17h22.46.296,Priming_gender,,2025.1.1,59.86034578125833,2025-09-25 17h23.22.081020 +0700,
กฤษณะ,กาญจนา,men.png,กฤษณะ,men.png,กฤษณะ,13,13,7,k,0.048277299967594445,None,,,,7,13,13,0,,,,,2.296794699970633,,,,,,,,,2.288225599913858,2.296794699970633,2.296794699970633,2.296794699970633,2.296794699970633,2.3603426999179646,k,0.048277299967594445,None,,,,,,,,,,,,,,,,,,,,878070,001,2025-09-25_17h22.46.296,Priming_gender,,2025.1.1,59.86034578125833,2025-09-25 17h23.22.081020 +0700,
นเรศ,พิมพ์ใจ,women.png,นเรศ,men.png,นเรศ,14,14,6,j,0.023794899927452207,None,,,,6,14,14,1,,,,,2.393682499998249,,,,,,,,,2.386348299914971,2.393682499998249,2.393682499998249,2.393682499998249,2.393682499998249,2.426687099970877,j,0.023794899927452207,None,,,,,,,,,,,,,,,,,,,,878070,001,2025-09-25_17h22.46.296,Priming_gender,,2025.1.1,59.86034578125833,2025-09-25 17h23.22.081020 +0700,
กฤษณะ,กาญจนา,men.png,กฤษณะ,men.png,กฤษณะ,15,15,8,k,0.056238200049847364,None,,,,8,15,15,0,,,,,2.461916400003247,,,,,,,,,2.4535712000215426,2.461916400003247,2.461916400003247,2.461916400003247,2.461916400003247,2.526776499929838,k,0.056238200049847364,None,,,,,,,,,,,,,,,,,,,,878070,001,2025-09-25_17h22.46.296,Priming_gender,,2025.1.1,59.86034578125833,2025-09-25 17h23.22.081020 +0700,
นเรศ,พิมพ์ใจ,women.png,นเรศ,men.png,นเรศ,16,16,7,j,0.01790510001592338,None,,,,7,16,16,1,,,,,2.563118699938059,,,,,,,,,2.554879999952391,2.563118699938059,2.563118699938059,2.563118699938059,2.563118699938059,2.594367599929683,j,0.01790510001592338,None,,,,,,,,,,,,,,,,,,,,878070,001,2025-09-25_17h22.46.296,Priming_gender,,2025.1.1,59.86034578125833,2025-09-25 17h23.22.081020 +0700,
กฤษณะ,กาญจนา,men.png,กฤษณะ,men.png,กฤษณะ,17,17,9,k,0.049364999984391034,None,,,,9,17,17,0,,,,,2.631437100004405,,,,,,,,,2.621299499995075,2.631437100004405,2.631437100004405,2.631437100004405,2.631437100004405,2.693186799995601,k,0.049364999984391034,None,,,,,,,,,,,,,,,,,,,,878070,001,2025-09-25_17h22.46.296,Priming_gender,,2025.1.1,59.86034578125833,2025-09-25 17h23.22.081020 +0700,
นเรศ,พิมพ์ใจ,women.png,นเรศ,men.png,นเรศ,18,18,8,j,0.012830100022256374,None,,,,8,18,18,1,,,,,2.7291214999277145,,,,,,,,,2.720141199999489,2.7291214999277145,2.7291214999277145,2.7291214999277145,2.7291214999277145,2.743858899921179,j,0.012830100022256374,None,,,,,,,,,,,,,,,,,,,,878070,001,2025-09-25_17h22.46.296,Priming_gender,,2025.1.1,59.86034578125833,2025-09-25 17h23.22.081020 +0700,
นเรศ,พิมพ์ใจ,women.png,นเรศ,men.png,นเรศ,19,19,9,k,0.06729339994490147,None,,,,9,19,19,1,,,,,2.777773799956776,,,,,,,,,2.770296899951063,2.777773799956776,2.777773799956776,2.777773799956776,2.777773799956776,2.8598816000157967,k,0.06729339994490147,None,,,,,,,,,,,,,,,,,,,,878070,001,2025-09-25_17h22.46.296,Priming_gender,,2025.1.1,59.86034578125833,2025-09-25 17h23.22.081020 +0700,
นเรศ,พิมพ์ใจ,women.png,นเรศ,men.png,นเรศ,20,20,10,j,0.020803799969144166,None,,,,10,20,20,1,,,,,2.893504999927245,,,,,,,,,2.8854995999718085,2.893504999927245,2.893504999927245,2.893504999927245,2.893504999927245,2.927644299925305,j,0.020803799969144166,None,,,,,,,,,,,,,,,,,,,,878070,001,2025-09-25_17h22.46.296,Priming_gender,,2025.1.1,59.86034578125833,2025-09-25 17h23.22.081020 +0700,
กฤษณะ,กาญจนา,men.png,กฤษณะ,men.png,กฤษณะ,21,21,10,k,0.04851820005569607,None,,,,10,21,21,0,,,,,2.9685421999311075,,,,,,,,,2.958369700005278,2.9685421999311075,2.9685421999311075,2.9685421999311075,2.9685421999311075,3.02718949993141,k,0.04851820005569607,None,,,,,,,,,,,,,,,,,,,,878070,001,2025-09-25_17h22.46.296,Priming_gender,,2025.1.1,59.86034578125833,2025-09-25 17h23.22.081020 +0700,
นเรศ,พิมพ์ใจ,women.png,นเรศ,men.png,นเรศ,22,22,11,j,0.01696899998933077,None,,,,11,22,22,1,,,,,3.060990499914624,,,,,,,,,3.0531596000073478,3.060990499914624,3.060990499914624,3.060990499914624,3.060990499914624,3.093564399983734,j,0.01696899998933077,None,,,,,,,,,,,,,,,,,,,,878070,001,2025-09-25_17h22.46.296,Priming_gender,,2025.1.1,59.86034578125833,2025-09-25 17h23.22.081020 +0700,
นเรศ,พิมพ์ใจ,women.png,นเรศ,men.png,นเรศ,23,23,12,k,0.05143680004402995,None,,,,12,23,23,1,,,,,3.1275830999948084,,,,,,,,,3.1196534999180585,3.1275830999948084,3.1275830999948084,3.1275830999948084,3.1275830999948084,3.1931296000257134,k,0.05143680004402995,None,,,,,,,,,,,,,,,,,,,,878070,001,2025-09-25_17h22.46.296,Priming_gender,,2025.1.1,59.86034578125833,2025-09-25 17h23.22.081020 +0700,
กฤษณะ,กาญจนา,men.png,กฤษณะ,men.png,กฤษณะ,24,24,11,j,0.023124600062146783,None,,,,11,24,24,0,,,,,3.2289046000223607,,,,,,,,,3.219668500008993,3.2289046000223607,3.2289046000223607,3.2289046000223607,3.2289046000223607,3.2604593000141904,j,0.023124600062146783,None,,,,,,,,,,,,,,,,,,,,878070,001,2025-09-25_17h22.46.296,Priming_gender,,2025.1.1,59.86034578125833,2025-09-25 17h23.22.081020 +0700,
นเรศ,พิมพ์ใจ,women.png,นเรศ,men.png,นเรศ,25,25,13,k,0.05148859997279942,None,,,,13,25,25,1,,,,,3.2982846000231802,,,,,,,,,3.2883833999512717,3.2982846000231802,3.2982846000231802,3.2982846000231802,3.2982846000231802,3.359758700011298,k,0.05148859997279942,None,,,,,,,,,,,,,,,,,,,,878070,001,2025-09-25_17h22.46.296,Priming_gender,,2025.1.1,59.86034578125833,2025-09-25 17h23.22.081020 +0700,
นเรศ,พิมพ์ใจ,women.png,นเรศ,men.png,นเรศ,26,26,14,j,0.022004200029186904,None,,,,14,26,26,1,,,,,3.3964241999201477,,,,,,,,,3.3869051999645308,3.3964241999201477,3.3964241999201477,3.3964241999201477,3.3964241999201477,3.426310900016688,j,0.022004200029186904,None,,,,,,,,,,,,,,,,,,,,878070,001,2025-09-25_17h22.46.296,Priming_gender,,2025.1.1,59.86034578125833,2025-09-25 17h23.22.081020 +0700,
กฤษณะ,กาญจนา,men.png,กฤษณะ,men.png,กฤษณะ,27,27,12,k,0.066268700058572,None,,,,12,27,27,0,,,,,3.460636099916883,,,,,,,,,3.452532200026326,3.460636099916883,3.460636099916883,3.460636099916883,3.460636099916883,3.5432420999277383,k,0.066268700058572,None,,,,,,,,,,,,,,,,,,,,878070,001,2025-09-25_17h22.46.296,Priming_gender,,2025.1.1,59.86034578125833,2025-09-25 17h23.22.081020 +0700,
กฤษณะ,กาญจนา,men.png,กฤษณะ,men.png,กฤษณะ,28,28,13,j,0.0016320999711751938,None,,,,13,28,28,0,,,,,3.5818548999959603,,,,,,,,,3.569756899960339,3.5818548999959603,3.5818548999959603,3.5818548999959603,3.5818548999959603,3.594019199954346,j,0.0016320999711751938,None,,,,,,,,,,,,,,,,,,,,878070,001,2025-09-25_17h22.46.296,Priming_gender,,2025.1.1,59.86034578125833,2025-09-25 17h23.22.081020 +0700,
นเรศ,พิมพ์ใจ,women.png,นเรศ,men.png,นเรศ,29,29,15,k,0.05256179999560118,None,,,,15,29,29,1,,,,,3.6265778000233695,,,,,,,,,3.6201568000251427,3.6265778000233695,3.6265778000233695,3.6265778000233695,3.6265778000233695,3.6932586999610066,k,0.05256179999560118,None,,,,,,,,,,,,,,,,,,,,878070,001,2025-09-25_17h22.46.296,Priming_gender,,2025.1.1,59.86034578125833,2025-09-25 17h23.22.081020 +0700,
นเรศ,พิมพ์ใจ,women.png,นเรศ,men.png,นเรศ,30,30,16,j,0.03166300000157207,None,,,,16,30,30,1,,,,,3.7295688999583945,,,,,,,,,3.7212426000041887,3.7295688999583945,3.7295688999583945,3.7295688999583945,3.7295688999583945,3.7763971999520436,j,0.03166300000157207,None,,,,,,,,,,,,,,,,,,,,878070,001,2025-09-25_17h22.46.296,Priming_gender,,2025.1.1,59.86034578125833,2025-09-25 17h23.22.081020 +0700,
กฤษณะ,กาญจนา,men.png,กฤษณะ,men.png,กฤษณะ,31,31,14,k,0.3523171000415459,None,,,,14,31,31,0,,,,,3.8103072999510914,,,,,,,,,3.802706499933265,3.8103072999510914,3.8103072999510914,3.8103072999510914,3.8103072999510914,4.177594600012526,k,0.3523171000415459,None,,,,,,,,,,,,,,,,,,,,878070,001,2025-09-25_17h22.46.296,Priming_gender,,2025.1.1,59.86034578125833,2025-09-25 17h23.22.081020 +0700,
นเรศ,พิมพ์ใจ,women.png,นเรศ,men.png,นเรศ,32,32,17,k,0.2501753999385983,None,,,,17,32,32,1,,,,,4.211266599944793,,,,,,,,,4.203584200004116,4.211266599944793,4.211266599944793,4.211266599944793,4.211266599944793,4.476391299976967,k,0.2501753999385983,None,,,,,,,,,,,,,,,,,,,,878070,001,2025-09-25_17h22.46.296,Priming_gender,,2025.1.1,59.86034578125833,2025-09-25 17h23.22.081020 +0700,
นเรศ,พิมพ์ใจ,women.png,นเรศ,men.png,นเรศ,33,33,18,k,0.3462089999811724,None,,,,18,33,33,1,,,,,4.51390000001993,,,,,,,,,4.506239700014703,4.51390000001993,4.51390000001993,4.51390000001993,4.51390000001993,4.860846500028856,k,0.3462089999811724,None,,,,,,,,,,,,,,,,,,,,878070,001,2025-09-25_17h22.46.296,Priming_gender,,2025.1.1,59.86034578125833,2025-09-25 17h23.22.081020 +0700,
กฤษณะ,กาญจนา,men.png,กฤษณะ,men.png,กฤษณะ,34,34,15,k,0.15145220002159476,None,,,,15,34,34,0,,,,,4.893808100023307,,,,,,,,,4.886430299957283,4.893808100023307,4.893808100023307,4.893808100023307,4.893808100023307,5.060317799914628,k,0.15145220002159476,None,,,,,,,,,,,,,,,,,,,,878070,001,2025-09-25_17h22.46.296,Priming_gender,,2025.1.1,59.86034578125833,2025-09-25 17h23.22.081020 +0700,
กฤษณะ,กาญจนา,men.png,กฤษณะ,men.png,กฤษณะ,35,35,16,k,0.06960629997774959,None,,,,16,35,35,0,,,,,5.094766999944113,,,,,,,,,5.087187599972822,5.094766999944113,5.094766999944113,5.094766999944113,5.094766999944113,5.176383899990469,k,0.06960629997774959,None,,,,,,,,,,,,,,,,,,,,878070,001,2025-09-25_17h22.46.296,Priming_gender,,2025.1.1,59.86034578125833,2025-09-25 17h23.22.081020 +0700,
กฤษณะ,กาญจนา,men.png,กฤษณะ,men.png,กฤษณะ,36,36,17,j,0.028948100050911307,None,,,,17,36,36,0,,,,,5.212293599965051,,,,,,,,,5.202452199999243,5.212293599965051,5.212293599965051,5.212293599965051,5.212293599965051,5.2431090999161825,j,0.028948100050911307,None,,,,,,,,,,,,,,,,,,,,878070,001,2025-09-25_17h22.46.296,Priming_gender,,2025.1.1,59.86034578125833,2025-09-25 17h23.22.081020 +0700,
กฤษณะ,กาญจนา,men.png,กฤษณะ,men.png,กฤษณะ,37,37,18,k,0.06024499994236976,None,,,,18,37,37,0,,,,,5.278456999920309,,,,,,,,,5.2698050999315456,5.278456999920309,5.278456999920309,5.278456999920309,5.278456999920309,5.3432217999361455,k,0.06024499994236976,None,,,,,,,,,,,,,,,,,,,,878070,001,2025-09-25_17h22.46.296,Priming_gender,,2025.1.1,59.86034578125833,2025-09-25 17h23.22.081020 +0700,
นเรศ,พิมพ์ใจ,women.png,นเรศ,men.png,นเรศ,38,38,19,j,0.02855469996575266,None,,,,19,38,38,1,,,,,5.380525899934582,,,,,,,,,5.37177349999547,5.380525899934582,5.380525899934582,5.380525899934582,5.380525899934582,5.409858400002122,j,0.02855469996575266,None,,,,,,,,,,,,,,,,,,,,878070,001,2025-09-25_17h22.46.296,Priming_gender,,2025.1.1,59.86034578125833,2025-09-25 17h23.22.081020 +0700,
กฤษณะ,กาญจนา,men.png,กฤษณะ,men.png,กฤษณะ,39,39,19,k,0.04887919989414513,None,,,,19,39,39,0,,,,,5.446231400012039,,,,,,,,,5.437385299941525,5.446231400012039,5.446231400012039,5.446231400012039,5.446231400012039,5.509649600018747,k,0.04887919989414513,None,,,,,,,,,,,,,,,,,,,,878070,001,2025-09-25_17h22.46.296,Priming_gender,,2025.1.1,59.86034578125833,2025-09-25 17h23.22.081020 +0700,
,,,,,,,,,,,,,,,,,,,,,,,,,,,,,,,,,,,,,,,,,5.509783599991351,5.527851299964823,5.527851299964823,6.12942499993369,space,0.5937627999810502,None,,,,,,,,,,,,,878070,001,2025-09-25_17h22.46.296,Priming_gender,,2025.1.1,59.86034578125833,2025-09-25 17h23.22.081020 +0700,
None,None,None,None,women.png,พิมพ์ใจ,0,0,0,,,,j,1.2050240999087691,None,,,,,0,0,0,31,6.1914103999733925,,,,,,,,,,,,,,,,,,,,,,,,,6.1755349999293685,6.1914103999733925,6.1914103999733925,6.1914103999733925,6.1914103999733925,6.1914103999733925,6.643487200024538,6.6938165000174195,7.409593499964103,j,1.2050240999087691,None,878070,001,2025-09-25_17h22.46.296,Priming_gender,,2025.1.1,59.86034578125833,2025-09-25 17h23.22.081020 +0700,
None,None,None,None,women.png,วาสนา,1,1,0,,,,k,1.1088859000010416,None,,,,,0,1,1,32,7.459850099985488,,,,,,,,,,,,,,,,,,,,,,,,,7.44636519998312,7.459850099985488,7.459850099985488,7.459850099985488,7.459850099985488,7.459850099985488,7.911060299957171,7.961154900025576,8.577239600010216,k,1.1088859000010416,None,878070,001,2025-09-25_17h22.46.296,Priming_gender,,2025.1.1,59.86034578125833,2025-09-25 17h23.22.081020 +0700,
None,None,None,None,women.png,อรรถพล,2,2,0,,,,j,0.07001009990926832,None,,,,,0,2,2,23,8.63271989999339,,,,,,,,,,,,,,,,,,,,,,,,,8.620228399988264,8.63271989999339,8.63271989999339,8.63271989999339,8.63271989999339,8.63271989999339,,,8.710284699918702,j,0.07001009990926832,None,878070,001,2025-09-25_17h22.46.296,Priming_gender,,2025.1.1,59.86034578125833,2025-09-25 17h23.22.081020 +0700,
None,None,None,วาสนา,men.png,วาสนา,3,3,0,,,,k,0.12464089994318783,None,,,,,0,3,3,12,8.752061999985017,,,,,,,,,,,,,,,,,,,,,,,,,8.741660399944521,8.752061999985017,8.752061999985017,8.752061999985017,8.752061999985017,8.752061999985017,,,8.877311800024472,k,0.12464089994318783,None,878070,001,2025-09-25_17h22.46.296,Priming_gender,,2025.1.1,59.86034578125833,2025-09-25 17h23.22.081020 +0700,
None,None,None,None,women.png,กาญจนา,4,4,0,,,,k,0.02003610006067902,None,,,,,0,4,4,30,8.92343520000577,,,,,,,,,,,,,,,,,,,,,,,,,8.911921499995515,8.92343520000577,8.92343520000577,8.92343520000577,8.92343520000577,8.92343520000577,,,8.960064899991266,k,0.02003610006067902,None,878070,001,2025-09-25_17h22.46.296,Priming_gender,,2025.1.1,59.86034578125833,2025-09-25 17h23.22.081020 +0700,
None,None,None,None,women.png,อาภรณ์,5,5,0,,,,k,0.09731610002927482,None,,,,,0,5,5,35,9.006745500024408,,,,,,,,,,,,,,,,,,,,,,,,,8.995585300028324,9.006745500024408,9.006745500024408,9.006745500024408,9.006745500024408,9.006745500024408,,,9.10976679995656,k,0.09731610002927482,None,878070,001,2025-09-25_17h22.46.296,Priming_gender,,2025.1.1,59.86034578125833,2025-09-25 17h23.22.081020 +0700,
None,None,None,None,women.png,ธนพล,6,6,0,,,,j,0.028489999938756227,None,,,,,0,6,6,22,9.151879200013354,,,,,,,,,,,,,,,,,,,,,,,,,9.140288399998099,9.151879200013354,9.151879200013354,9.151879200013354,9.151879200013354,9.151879200013354,,,9.193712499924004,j,0.028489999938756227,None,878070,001,2025-09-25_17h22.46.296,Priming_gender,,2025.1.1,59.86034578125833,2025-09-25 17h23.22.081020 +0700,
วรพล,วรรณา,None,วรพล,men.png,วรพล,7,7,0,,,,k,0.07678999996278435,None,,,,,0,7,7,7,9.233470699982718,,,,,,,,,,,,,,,,,,,,,,,,,9.22253719996661,9.233470699982718,9.233470699982718,9.233470699982718,9.233470699982718,9.233470699982718,,,9.326754199923016,k,0.07678999996278435,None,878070,001,2025-09-25_17h22.46.296,Priming_gender,,2025.1.1,59.86034578125833,2025-09-25 17h23.22.081020 +0700,
None,None,None,None,women.png,วรพล,8,8,0,,,,j,0.005362599971704185,None,,,,,0,8,8,27,9.364568699966185,,,,,,,,,,,,,,,,,,,,,,,,,9.354970999993384,9.364568699966185,9.364568699966185,9.364568699966185,9.364568699966185,9.364568699966185,,,9.375972699956037,j,0.005362599971704185,None,878070,001,2025-09-25_17h22.46.296,Priming_gender,,2025.1.1,59.86034578125833,2025-09-25 17h23.22.081020 +0700,
None,None,None,None,women.png,ชัยวัฒน์,9,9,0,,,,k,0.07209360005799681,None,,,,,0,9,9,24,9.424534299992956,,,,,,,,,,,,,,,,,,,,,,,,,9.412378899985924,9.424534299992956,9.424534299992956,9.424534299992956,9.424534299992956,9.424534299992956,,,9.510760699980892,k,0.07209360005799681,None,878070,001,2025-09-25_17h22.46.296,Priming_gender,,2025.1.1,59.86034578125833,2025-09-25 17h23.22.081020 +0700,
ปริญญา,อาภรณ์,None,ปริญญา,men.png,ปริญญา,10,10,0,,,,j,0.012682900065556169,None,,,,,0,10,10,5,9.55288269999437,,,,,,,,,,,,,,,,,,,,,,,,,9.542093699914403,9.55288269999437,9.55288269999437,9.55288269999437,9.55288269999437,9.55288269999437,,,9.578139399993233,j,0.012682900065556169,None,878070,001,2025-09-25_17h22.46.296,Priming_gender,,2025.1.1,59.86034578125833,2025-09-25 17h23.22.081020 +0700,
None,None,None,None,women.png,วรรณา,11,11,0,,,,k,0.09225049999076873,None,,,,,0,11,11,37,9.616954599972814,,,,,,,,,,,,,,,,,,,,,,,,,9.60653300001286,9.616954599972814,9.616954599972814,9.616954599972814,9.616954599972814,9.616954599972814,,,9.710252000018954,k,0.09225049999076873,None,878070,001,2025-09-25_17h22.46.296,Priming_gender,,2025.1.1,59.86034578125833,2025-09-25 17h23.22.081020 +0700,
พิสิฐ,ปัทมา,None,พิสิฐ,men.png,พิสิฐ,12,12,0,,,,k,0.3863314999034628,None,,,,,0,12,12,9,9.753326699952595,,,,,,,,,,,,,,,,,,,,,,,,,9.741870499914512,9.753326699952595,9.753326699952595,9.753326699952595,9.753326699952595,9.753326699952595,,,10.14434350002557,k,0.3863314999034628,None,878070,001,2025-09-25_17h22.46.296,Priming_gender,,2025.1.1,59.86034578125833,2025-09-25 17h23.22.081020 +0700,
None,None,None,อาภรณ์,men.png,อาภรณ์,13,13,0,,,,j,0.09965810005087405,None,,,,,0,13,13,15,10.182196900015697,,,,,,,,,,,,,,,,,,,,,,,,,10.170990800019354,10.182196900015697,10.182196900015697,10.182196900015697,10.182196900015697,10.182196900015697,,,10.293429699959233,j,0.09965810005087405,None,878070,001,2025-09-25_17h22.46.296,Priming_gender,,2025.1.1,59.86034578125833,2025-09-25 17h23.22.081020 +0700,
None,None,None,None,women.png,นเรศ,14,14,0,,,,k,0.09585280006285757,None,,,,,0,14,14,21,10.336529699969105,,,,,,,,,,,,,,,,,,,,,,,,,10.326160499942489,10.336529699969105,10.336529699969105,10.336529699969105,10.336529699969105,10.336529699969105,,,10.44365629996173,k,0.09585280006285757,None,878070,001,2025-09-25_17h22.46.296,Priming_gender,,2025.1.1,59.86034578125833,2025-09-25 17h23.22.081020 +0700,
None,None,None,None,women.png,สุนิสา,15,15,0,,,,k,0.09527789999265224,None,,,,,0,15,15,38,10.486751599935815,,,,,,,,,,,,,,,,,,,,,,,,,10.473327499930747,10.486751599935815,10.486751599935815,10.486751599935815,10.486751599935815,10.486751599935815,,,10.594697599997744,k,0.09527789999265224,None,878070,001,2025-09-25_17h22.46.296,Priming_gender,,2025.1.1,59.86034578125833,2025-09-25 17h23.22.081020 +0700,
ภูมิพัฒน์,จิตติมา,None,ภูมิพัฒน์,men.png,ภูมิพัฒน์,16,16,0,,,,j,0.0009128999663516879,None,,,,,0,16,16,6,10.63520159991458,,,,,,,,,,,,,,,,,,,,,,,,,10.624051899998449,10.63520159991458,10.63520159991458,10.63520159991458,10.63520159991458,10.63520159991458,,,10.644130099914037,j,0.0009128999663516879,None,878070,001,2025-09-25_17h22.46.296,Priming_gender,,2025.1.1,59.86034578125833,2025-09-25 17h23.22.081020 +0700,
นเรศ,พิมพ์ใจ,women.png,นเรศ,men.png,นเรศ,17,17,0,,,,,,,,,,,0,17,17,1,10.682023799978197,,,,,,,,,,,,,,,,,,,,,,,,,10.67163899994921,10.682023799978197,10.682023799978197,10.682023799978197,10.682023799978197,10.682023799978197,,,,,,,,,,,,,,,
