Male,Female,Image,Name,ImagePriming,NamePriming,thisN,thisTrialN,thisRepN,key_resp.keys,key_resp.rt,key_resp.duration,key_resp_3.keys,key_resp_3.rt,key_resp_3.duration,training.thisRepN,training.thisTrialN,training.thisN,training.thisIndex,priming.thisRepN,priming.thisTrialN,priming.thisN,priming.thisIndex,thisRow.t,notes,training_Instruction.started,instruction_slide.started,instruction_continue.started,training_Instruction.stopped,instruction_continue.keys,instruction_continue.rt,instruction_continue.duration,training_block.started,MAN.started,WOMAN.started,pic.started,key_resp.started,training_block.stopped,training.key_resp.keys,training.key_resp.rt,training.key_resp.duration,priming_instruction.started,instruction_slide_2.started,instruction_continue_2.started,priming_instruction.stopped,instruction_continue_2.keys,instruction_continue_2.rt,instruction_continue_2.duration,priming_block.started,MAN_3.started,MAN_3_desc.started,WOMAN_3.started,name_2.started,name_serialPort.started,key_resp_3.started,name_serialPort.stopped,pic_2.started,name_2.stopped,priming_block.stopped,priming.key_resp_3.keys,priming.key_resp_3.rt,priming.key_resp_3.duration,participant,session,date,expName,expVersion,psychopyVersion,frameRate,expStart,
,,,,,,,,,,,,,,,,,,,,,,,,,0.008936199941672385,0.01876579993404448,0.01876579993404448,0.6342413999373093,space,0.6137774999951944,None,,,,,,,,,,,,,,,,,,,,,,,,,,,,,,,927729,001,2025-09-25_17h26.12.014,Priming_gender,,2025.1.1,60.38249900868263,2025-09-25 17h26.15.215412 +0700,
นเรศ,พิมพ์ใจ,women.png,นเรศ,men.png,นเรศ,0,0,0,j,0.2811331999255344,None,,,,0,0,0,1,,,,,0.6871967000188306,,,,,,,,,0.6776901000412181,0.6871967000188306,0.6871967000188306,0.6871967000188306,0.6871967000188306,0.9819554999703541,j,0.2811331999255344,None,,,,,,,,,,,,,,,,,,,,,,927729,001,2025-09-25_17h26.12.014,Priming_gender,,2025.1.1,60.38249900868263,2025-09-25 17h26.15.215412 +0700,
กฤษณะ,กาญจนา,men.png,กฤษณะ,men.png,กฤษณะ,1,1,0,k,0.09410340001340955,None,,,,0,1,1,0,,,,,1.0196181000210345,,,,,,,,,1.0113806000445038,1.0196181000210345,1.0196181000210345,1.0196181000210345,1.0196181000210345,1.1159929999848828,k,0.09410340001340955,None,,,,,,,,,,,,,,,,,,,,,,927729,001,2025-09-25_17h26.12.014,Priming_gender,,2025.1.1,60.38249900868263,2025-09-25 17h26.15.215412 +0700,
นเรศ,พิมพ์ใจ,women.png,นเรศ,men.png,นเรศ,2,2,1,j,0.01754639996215701,None,,,,1,2,2,1,,,,,1.1554156999336556,,,,,,,,,1.146336399950087,1.1554156999336556,1.1554156999336556,1.1554156999336556,1.1554156999336556,1.185151300043799,j,0.01754639996215701,None,,,,,,,,,,,,,,,,,,,,,,927729,001,2025-09-25_17h26.12.014,Priming_gender,,2025.1.1,60.38249900868263,2025-09-25 17h26.15.215412 +0700,
นเรศ,พิมพ์ใจ,women.png,นเรศ,men.png,นเรศ,3,3,2,k,0.0369573999196291,None,,,,2,3,3,1,,,,,1.224276499939151,,,,,,,,,1.2155845999950543,1.224276499939151,1.224276499939151,1.224276499939151,1.224276499939151,1.2663983999518678,k,0.0369573999196291,None,,,,,,,,,,,,,,,,,,,,,,927729,001,2025-09-25_17h26.12.014,Priming_gender,,2025.1.1,60.38249900868263,2025-09-25 17h26.15.215412 +0700,
กฤษณะ,กาญจนา,men.png,กฤษณะ,men.png,กฤษณะ,4,4,1,j,0.033412400051020086,None,,,,1,4,4,0,,,,,1.3011844999855384,,,,,,,,,1.2926642999518663,1.3011844999855384,1.3011844999855384,1.3011844999855384,1.3011844999855384,1.3507101000286639,j,0.033412400051020086,None,,,,,,,,,,,,,,,,,,,,,,927729,001,2025-09-25_17h26.12.014,Priming_gender,,2025.1.1,60.38249900868263,2025-09-25 17h26.15.215412 +0700,
นเรศ,พิมพ์ใจ,women.png,นเรศ,men.png,นเรศ,5,5,3,k,0.031009300029836595,None,,,,3,5,5,1,,,,,1.384839899954386,,,,,,,,,1.3767843999667093,1.384839899954386,1.384839899954386,1.384839899954386,1.384839899954386,1.433223900035955,k,0.031009300029836595,None,,,,,,,,,,,,,,,,,,,,,,927729,001,2025-09-25_17h26.12.014,Priming_gender,,2025.1.1,60.38249900868263,2025-09-25 17h26.15.215412 +0700,
กฤษณะ,กาญจนา,men.png,กฤษณะ,men.png,กฤษณะ,6,6,2,j,0.027349699987098575,None,,,,2,6,6,0,,,,,1.4669421999715269,,,,,,,,,1.4594987999880686,1.4669421999715269,1.4669421999715269,1.4669421999715269,1.4669421999715269,1.499757400015369,j,0.027349699987098575,None,,,,,,,,,,,,,,,,,,,,,,927729,001,2025-09-25_17h26.12.014,Priming_gender,,2025.1.1,60.38249900868263,2025-09-25 17h26.15.215412 +0700,
นเรศ,พิมพ์ใจ,women.png,นเรศ,men.png,นเรศ,7,7,4,k,0.043882900034077466,None,,,,4,7,7,1,,,,,1.5341280000284314,,,,,,,,,1.525950999930501,1.5341280000284314,1.5341280000284314,1.5341280000284314,1.5341280000284314,1.5821167000103742,k,0.043882900034077466,None,,,,,,,,,,,,,,,,,,,,,,927729,001,2025-09-25_17h26.12.014,Priming_gender,,2025.1.1,60.38249900868263,2025-09-25 17h26.15.215412 +0700,
กฤษณะ,กาญจนา,men.png,กฤษณะ,men.png,กฤษณะ,8,8,3,j,0.04929730005096644,None,,,,3,8,8,0,,,,,1.6185020999982953,,,,,,,,,1.6106295000063255,1.6185020999982953,1.6185020999982953,1.6185020999982953,1.6185020999982953,1.6837738000322133,j,0.04929730005096644,None,,,,,,,,,,,,,,,,,,,,,,927729,001,2025-09-25_17h26.12.014,Priming_gender,,2025.1.1,60.38249900868263,2025-09-25 17h26.15.215412 +0700,
กฤษณะ,กาญจนา,men.png,กฤษณะ,men.png,กฤษณะ,9,9,4,k,0.03493500000331551,None,,,,4,9,9,0,,,,,1.717522899969481,,,,,,,,,1.709834299981594,1.717522899969481,1.717522899969481,1.717522899969481,1.717522899969481,1.7663134000031278,k,0.03493500000331551,None,,,,,,,,,,,,,,,,,,,,,,927729,001,2025-09-25_17h26.12.014,Priming_gender,,2025.1.1,60.38249900868263,2025-09-25 17h26.15.215412 +0700,
นเรศ,พิมพ์ใจ,women.png,นเรศ,men.png,นเรศ,10,10,5,j,0.029460899997502565,None,,,,5,10,10,1,,,,,1.8018081999616697,,,,,,,,,1.793141399975866,1.8018081999616697,1.8018081999616697,1.8018081999616697,1.8018081999616697,1.833197999978438,j,0.029460899997502565,None,,,,,,,,,,,,,,,,,,,,,,927729,001,2025-09-25_17h26.12.014,Priming_gender,,2025.1.1,60.38249900868263,2025-09-25 17h26.15.215412 +0700,
กฤษณะ,กาญจนา,men.png,กฤษณะ,men.png,กฤษณะ,11,11,5,k,0.041535899974405766,None,,,,5,11,11,0,,,,,1.8685630999971181,,,,,,,,,1.8603311999468133,1.8685630999971181,1.8685630999971181,1.8685630999971181,1.8685630999971181,1.9166106999618933,k,0.041535899974405766,None,,,,,,,,,,,,,,,,,,,,,,927729,001,2025-09-25_17h26.12.014,Priming_gender,,2025.1.1,60.38249900868263,2025-09-25 17h26.15.215412 +0700,
นเรศ,พิมพ์ใจ,women.png,นเรศ,men.png,นเรศ,12,12,6,j,0.03852940001524985,None,,,,6,12,12,1,,,,,1.9508406999520957,,,,,,,,,1.9428058000048622,1.9508406999520957,1.9508406999520957,1.9508406999520957,1.9508406999520957,1.999972700024955,j,0.03852940001524985,None,,,,,,,,,,,,,,,,,,,,,,927729,001,2025-09-25_17h26.12.014,Priming_gender,,2025.1.1,60.38249900868263,2025-09-25 17h26.15.215412 +0700,
นเรศ,พิมพ์ใจ,women.png,นเรศ,men.png,นเรศ,13,13,7,k,0.0318455999949947,None,,,,7,13,13,1,,,,,2.0360680000158027,,,,,,,,,2.027291400008835,2.0360680000158027,2.0360680000158027,2.0360680000158027,2.0360680000158027,2.082828399958089,k,0.0318455999949947,None,,,,,,,,,,,,,,,,,,,,,,927729,001,2025-09-25_17h26.12.014,Priming_gender,,2025.1.1,60.38249900868263,2025-09-25 17h26.15.215412 +0700,
นเรศ,พิมพ์ใจ,women.png,นเรศ,men.png,นเรศ,14,14,8,j,0.020799199934117496,None,,,,8,14,14,1,,,,,2.1169371999567375,,,,,,,,,2.109297899994999,2.1169371999567375,2.1169371999567375,2.1169371999567375,2.1169371999567375,2.149557000026107,j,0.020799199934117496,None,,,,,,,,,,,,,,,,,,,,,,927729,001,2025-09-25_17h26.12.014,Priming_gender,,2025.1.1,60.38249900868263,2025-09-25 17h26.15.215412 +0700,
กฤษณะ,กาญจนา,men.png,กฤษณะ,men.png,กฤษณะ,15,15,6,k,0.04012620006687939,None,,,,6,15,15,0,,,,,2.1849817000329494,,,,,,,,,2.1765936999581754,2.1849817000329494,2.1849817000329494,2.1849817000329494,2.1849817000329494,2.2329599999357015,k,0.04012620006687939,None,,,,,,,,,,,,,,,,,,,,,,927729,001,2025-09-25_17h26.12.014,Priming_gender,,2025.1.1,60.38249900868263,2025-09-25 17h26.15.215412 +0700,
นเรศ,พิมพ์ใจ,women.png,นเรศ,men.png,นเรศ,16,16,9,j,0.0417489999672398,None,,,,9,16,16,1,,,,,2.267515999963507,,,,,,,,,2.25913399993442,2.267515999963507,2.267515999963507,2.267515999963507,2.267515999963507,2.3165132999420166,j,0.0417489999672398,None,,,,,,,,,,,,,,,,,,,,,,927729,001,2025-09-25_17h26.12.014,Priming_gender,,2025.1.1,60.38249900868263,2025-09-25 17h26.15.215412 +0700,
กฤษณะ,กาญจนา,men.png,กฤษณะ,men.png,กฤษณะ,17,17,7,k,0.049376699957065284,None,,,,7,17,17,0,,,,,2.350445899995975,,,,,,,,,2.3422406000318006,2.350445899995975,2.350445899995975,2.350445899995975,2.350445899995975,2.401485600043088,k,0.049376699957065284,None,,,,,,,,,,,,,,,,,,,,,,927729,001,2025-09-25_17h26.12.014,Priming_gender,,2025.1.1,60.38249900868263,2025-09-25 17h26.15.215412 +0700,
นเรศ,พิมพ์ใจ,women.png,นเรศ,men.png,นเรศ,18,18,10,j,0.043285700026899576,None,,,,10,18,18,1,,,,,2.4382283999584615,,,,,,,,,2.42957729997579,2.4382283999584615,2.4382283999584615,2.4382283999584615,2.4382283999584615,2.4829886000370607,j,0.043285700026899576,None,,,,,,,,,,,,,,,,,,,,,,927729,001,2025-09-25_17h26.12.014,Priming_gender,,2025.1.1,60.38249900868263,2025-09-25 17h26.15.215412 +0700,
กฤษณะ,กาญจนา,men.png,กฤษณะ,men.png,กฤษณะ,19,19,8,k,0.05603710003197193,None,,,,8,19,19,0,,,,,2.517954000039026,,,,,,,,,2.509860699996352,2.517954000039026,2.517954000039026,2.517954000039026,2.517954000039026,2.5826479999814183,k,0.05603710003197193,None,,,,,,,,,,,,,,,,,,,,,,927729,001,2025-09-25_17h26.12.014,Priming_gender,,2025.1.1,60.38249900868263,2025-09-25 17h26.15.215412 +0700,
นเรศ,พิมพ์ใจ,women.png,นเรศ,men.png,นเรศ,20,20,11,j,0.029630000004544854,None,,,,11,20,20,1,,,,,2.616928600007668,,,,,,,,,2.6087665000231937,2.616928600007668,2.616928600007668,2.616928600007668,2.616928600007668,2.6497161999577656,j,0.029630000004544854,None,,,,,,,,,,,,,,,,,,,,,,927729,001,2025-09-25_17h26.12.014,Priming_gender,,2025.1.1,60.38249900868263,2025-09-25 17h26.15.215412 +0700,
นเรศ,พิมพ์ใจ,women.png,นเรศ,men.png,นเรศ,21,21,12,k,0.05540599999949336,None,,,,12,21,21,1,,,,,2.6853123999899253,,,,,,,,,2.67699409998022,2.6853123999899253,2.6853123999899253,2.6853123999899253,2.6853123999899253,2.748788799974136,k,0.05540599999949336,None,,,,,,,,,,,,,,,,,,,,,,927729,001,2025-09-25_17h26.12.014,Priming_gender,,2025.1.1,60.38249900868263,2025-09-25 17h26.15.215412 +0700,
กฤษณะ,กาญจนา,men.png,กฤษณะ,men.png,กฤษณะ,22,22,9,j,0.04051740001887083,None,,,,9,22,22,0,,,,,2.77962759998627,,,,,,,,,2.77231709996704,2.77962759998627,2.77962759998627,2.77962759998627,2.77962759998627,2.832098299986683,j,0.04051740001887083,None,,,,,,,,,,,,,,,,,,,,,,927729,001,2025-09-25_17h26.12.014,Priming_gender,,2025.1.1,60.38249900868263,2025-09-25 17h26.15.215412 +0700,
นเรศ,พิมพ์ใจ,women.png,นเรศ,men.png,นเรศ,23,23,13,k,0.05569319997448474,None,,,,13,23,23,1,,,,,2.8615907999919727,,,,,,,,,2.85515590000432,2.8615907999919727,2.8615907999919727,2.8615907999919727,2.8615907999919727,2.9318663999438286,k,0.05569319997448474,None,,,,,,,,,,,,,,,,,,,,,,927729,001,2025-09-25_17h26.12.014,Priming_gender,,2025.1.1,60.38249900868263,2025-09-25 17h26.15.215412 +0700,
กฤษณะ,กาญจนา,men.png,กฤษณะ,men.png,กฤษณะ,24,24,10,j,0.0370031000347808,None,,,,10,24,24,0,,,,,2.960132500040345,,,,,,,,,2.9540530999656767,2.960132500040345,2.960132500040345,2.960132500040345,2.960132500040345,2.9987738999770954,j,0.0370031000347808,None,,,,,,,,,,,,,,,,,,,,,,927729,001,2025-09-25_17h26.12.014,Priming_gender,,2025.1.1,60.38249900868263,2025-09-25 17h26.15.215412 +0700,
กฤษณะ,กาญจนา,men.png,กฤษณะ,men.png,กฤษณะ,25,25,11,k,0.06635639991145581,None,,,,11,25,25,0,,,,,3.027991099981591,,,,,,,,,3.0212848000228405,3.027991099981591,3.027991099981591,3.027991099981591,3.027991099981591,3.099060200038366,k,0.06635639991145581,None,,,,,,,,,,,,,,,,,,,,,,927729,001,2025-09-25_17h26.12.014,Priming_gender,,2025.1.1,60.38249900868263,2025-09-25 17h26.15.215412 +0700,
นเรศ,พิมพ์ใจ,women.png,นเรศ,men.png,นเรศ,26,26,14,j,0.0439706000033766,None,,,,14,26,26,1,,,,,3.128131099976599,,,,,,,,,3.1215844999533147,3.128131099976599,3.128131099976599,3.128131099976599,3.128131099976599,3.182362199993804,j,0.0439706000033766,None,,,,,,,,,,,,,,,,,,,,,,927729,001,2025-09-25_17h26.12.014,Priming_gender,,2025.1.1,60.38249900868263,2025-09-25 17h26.15.215412 +0700,
นเรศ,พิมพ์ใจ,women.png,นเรศ,men.png,นเรศ,27,27,15,k,0.05280000006314367,None,,,,15,27,27,1,,,,,3.21551729994826,,,,,,,,,3.206439799978398,3.21551729994826,3.21551729994826,3.21551729994826,3.21551729994826,3.281723399995826,k,0.05280000006314367,None,,,,,,,,,,,,,,,,,,,,,,927729,001,2025-09-25_17h26.12.014,Priming_gender,,2025.1.1,60.38249900868263,2025-09-25 17h26.15.215412 +0700,
กฤษณะ,กาญจนา,men.png,กฤษณะ,men.png,กฤษณะ,28,28,12,j,0.029530099942348897,None,,,,12,28,28,0,,,,,3.3119252999313176,,,,,,,,,3.3044446000130847,3.3119252999313176,3.3119252999313176,3.3119252999313176,3.3119252999313176,3.3489261999493465,j,0.029530099942348897,None,,,,,,,,,,,,,,,,,,,,,,927729,001,2025-09-25_17h26.12.014,Priming_gender,,2025.1.1,60.38249900868263,2025-09-25 17h26.15.215412 +0700,
กฤษณะ,กาญจนา,men.png,กฤษณะ,men.png,กฤษณะ,29,29,13,k,0.046558900037780404,None,,,,13,29,29,0,,,,,3.3785687999334186,,,,,,,,,3.3715575999813154,3.3785687999334186,3.3785687999334186,3.3785687999334186,3.3785687999334186,3.4321988000301644,k,0.046558900037780404,None,,,,,,,,,,,,,,,,,,,,,,927729,001,2025-09-25_17h26.12.014,Priming_gender,,2025.1.1,60.38249900868263,2025-09-25 17h26.15.215412 +0700,
กฤษณะ,กาญจนา,men.png,กฤษณะ,men.png,กฤษณะ,30,30,14,j,0.05219519999809563,None,,,,14,30,30,0,,,,,3.4609273000387475,,,,,,,,,3.4545120999682695,3.4609273000387475,3.4609273000387475,3.4609273000387475,3.4609273000387475,3.5161342000355944,j,0.05219519999809563,None,,,,,,,,,,,,,,,,,,,,,,927729,001,2025-09-25_17h26.12.014,Priming_gender,,2025.1.1,60.38249900868263,2025-09-25 17h26.15.215412 +0700,
กฤษณะ,กาญจนา,men.png,กฤษณะ,men.png,กฤษณะ,31,31,15,k,0.05388140003196895,None,,,,15,31,31,0,,,,,3.551039300044067,,,,,,,,,3.5418360999319702,3.551039300044067,3.551039300044067,3.551039300044067,3.551039300044067,3.6149363999720663,k,0.05388140003196895,None,,,,,,,,,,,,,,,,,,,,,,927729,001,2025-09-25_17h26.12.014,Priming_gender,,2025.1.1,60.38249900868263,2025-09-25 17h26.15.215412 +0700,
นเรศ,พิมพ์ใจ,women.png,นเรศ,men.png,นเรศ,32,32,16,j,0.042740600067190826,None,,,,16,32,32,1,,,,,3.6454809999559075,,,,,,,,,3.638864599983208,3.6454809999559075,3.6454809999559075,3.6454809999559075,3.6454809999559075,3.698469999944791,j,0.042740600067190826,None,,,,,,,,,,,,,,,,,,,,,,927729,001,2025-09-25_17h26.12.014,Priming_gender,,2025.1.1,60.38249900868263,2025-09-25 17h26.15.215412 +0700,
กฤษณะ,กาญจนา,men.png,กฤษณะ,men.png,กฤษณะ,33,33,16,k,0.04442769999150187,None,,,,16,33,33,0,,,,,3.730457399971783,,,,,,,,,3.7234790000366047,3.730457399971783,3.730457399971783,3.730457399971783,3.730457399971783,3.782653499976732,k,0.04442769999150187,None,,,,,,,,,,,,,,,,,,,,,,927729,001,2025-09-25_17h26.12.014,Priming_gender,,2025.1.1,60.38249900868263,2025-09-25 17h26.15.215412 +0700,
กฤษณะ,กาญจนา,men.png,กฤษณะ,men.png,กฤษณะ,34,34,17,j,0.05165859998669475,None,,,,17,34,34,0,,,,,3.813378299935721,,,,,,,,,3.806154299993068,3.813378299935721,3.813378299935721,3.813378299935721,3.813378299935721,3.882373800035566,j,0.05165859998669475,None,,,,,,,,,,,,,,,,,,,,,,927729,001,2025-09-25_17h26.12.014,Priming_gender,,2025.1.1,60.38249900868263,2025-09-25 17h26.15.215412 +0700,
นเรศ,พิมพ์ใจ,women.png,นเรศ,men.png,นเรศ,35,35,17,k,0.03897639992646873,None,,,,17,35,35,1,,,,,3.910782399936579,,,,,,,,,3.9047889999346808,3.910782399936579,3.910782399936579,3.910782399936579,3.910782399936579,3.9664924000389874,k,0.03897639992646873,None,,,,,,,,,,,,,,,,,,,,,,927729,001,2025-09-25_17h26.12.014,Priming_gender,,2025.1.1,60.38249900868263,2025-09-25 17h26.15.215412 +0700,
กฤษณะ,กาญจนา,men.png,กฤษณะ,men.png,กฤษณะ,36,36,18,j,0.03108829993288964,None,,,,18,36,36,0,,,,,4.002660300000571,,,,,,,,,3.9946614999789745,4.002660300000571,4.002660300000571,4.002660300000571,4.002660300000571,4.0495497999945655,j,0.03108829993288964,None,,,,,,,,,,,,,,,,,,,,,,927729,001,2025-09-25_17h26.12.014,Priming_gender,,2025.1.1,60.38249900868263,2025-09-25 17h26.15.215412 +0700,
นเรศ,พิมพ์ใจ,women.png,นเรศ,men.png,นเรศ,37,37,18,k,0.04660680005326867,None,,,,18,37,37,1,,,,,4.083791199955158,,,,,,,,,4.076359099941328,4.083791199955158,4.083791199955158,4.083791199955158,4.083791199955158,4.133969599963166,k,0.04660680005326867,None,,,,,,,,,,,,,,,,,,,,,,927729,001,2025-09-25_17h26.12.014,Priming_gender,,2025.1.1,60.38249900868263,2025-09-25 17h26.15.215412 +0700,
กฤษณะ,กาญจนา,men.png,กฤษณะ,men.png,กฤษณะ,38,38,19,j,0.04076300002634525,None,,,,19,38,38,0,,,,,4.17285999993328,,,,,,,,,4.164345799945295,4.17285999993328,4.17285999993328,4.17285999993328,4.17285999993328,4.216557499952614,j,0.04076300002634525,None,,,,,,,,,,,,,,,,,,,,,,927729,001,2025-09-25_17h26.12.014,Priming_gender,,2025.1.1,60.38249900868263,2025-09-25 17h26.15.215412 +0700,
นเรศ,พิมพ์ใจ,women.png,นเรศ,men.png,นเรศ,39,39,19,k,0.0584676000289619,None,,,,19,39,39,1,,,,,4.254155099974014,,,,,,,,,4.246049299952574,4.254155099974014,4.254155099974014,4.254155099974014,4.254155099974014,4.316182399983518,k,0.0584676000289619,None,,,,,,,,,,,,,,,,,,,,,,927729,001,2025-09-25_17h26.12.014,Priming_gender,,2025.1.1,60.38249900868263,2025-09-25 17h26.15.215412 +0700,
,,,,,,,,,,,,,,,,,,,,,,,,,,,,,,,,,,,,,,,,,4.316376699949615,4.33423080004286,4.33423080004286,4.834543999982998,space,0.4948876000707969,None,,,,,,,,,,,,,,,927729,001,2025-09-25_17h26.12.014,Priming_gender,,2025.1.1,60.38249900868263,2025-09-25 17h26.15.215412 +0700,
None,None,None,None,women.png,ปัทมา,0,0,0,,,,k,1.655117699992843,None,,,,,0,0,0,39,4.89995039999485,,,,,,,,,,,,,,,,,,,,,,,,,4.8801951999776065,4.89995039999485,4.89995039999485,4.89995039999485,4.89995039999485,0.045699300011619925,4.89995039999485,0.3639253999572247,5.349091000040062,5.398885800037533,6.566995300003327,k,1.655117699992843,None,927729,001,2025-09-25_17h26.12.014,Priming_gender,,2025.1.1,60.38249900868263,2025-09-25 17h26.15.215412 +0700,
None,None,None,None,women.png,พิมพ์ใจ,1,1,0,,,,k,0.6782921999692917,None,,,,,0,1,1,31,6.624061199952848,,,,,,,,,,,,,,,,,,,,,,,,,6.609341099974699,6.624061199952848,6.624061199952848,6.624061199952848,6.624061199952848,0.04239650000818074,6.624061199952848,0.34819960000459105,7.0820906000444666,7.132431100006215,7.316313399933279,k,0.6782921999692917,None,927729,001,2025-09-25_17h26.12.014,Priming_gender,,2025.1.1,60.38249900868263,2025-09-25 17h26.15.215412 +0700,
None,None,None,None,women.png,ศิริพร,2,2,0,,,,j,0.8127386000705883,None,,,,,0,2,2,34,7.3648054000223055,,,,,,,,,,,,,,,,,,,,,,,,,7.3528626000043005,7.3648054000223055,7.3648054000223055,7.3648054000223055,7.3648054000223055,0.036557700019329786,7.3648054000223055,0.33224799996241927,7.8325536999618635,7.865307200001553,8.182655400014482,j,0.8127386000705883,None,927729,001,2025-09-25_17h26.12.014,Priming_gender,,2025.1.1,60.38249900868263,2025-09-25 17h26.15.215412 +0700,
None,None,None,None,women.png,สุนิสา,3,3,0,,,,j,0.9014281999552622,None,,,,,0,3,3,38,8.228630400029942,,,,,,,,,,,,,,,,,,,,,,,,,8.21708860003855,8.228630400029942,8.228630400029942,8.228630400029942,8.228630400029942,0.03440460003912449,8.228630400029942,0.33527290006168187,8.698232299997471,8.731069799978286,9.131945600034669,j,0.9014281999552622,None,927729,001,2025-09-25_17h26.12.014,Priming_gender,,2025.1.1,60.38249900868263,2025-09-25 17h26.15.215412 +0700,
None,None,None,None,women.png,จิตติมา,4,4,0,,,,k,0.6637978000799194,None,,,,,0,4,4,36,9.175486900028773,,,,,,,,,,,,,,,,,,,,,,,,,9.162863399949856,9.175486900028773,9.175486900028773,9.175486900028773,9.175486900028773,0.03091049997601658,9.175486900028773,0.3329049999592826,9.63213599997107,9.681959499954246,9.849467199994251,k,0.6637978000799194,None,927729,001,2025-09-25_17h26.12.014,Priming_gender,,2025.1.1,60.38249900868263,2025-09-25 17h26.15.215412 +0700,
None,None,None,พิมพ์ใจ,men.png,พิมพ์ใจ,5,5,0,,,,k,1.0762668999377638,None,,,,,0,5,5,11,9.887638399959542,,,,,,,,,,,,,,,,,,,,,,,,,9.876572399982251,9.887638399959542,9.887638399959542,9.887638399959542,9.887638399959542,0.02710609999485314,9.887638399959542,0.33189120003953576,10.365357200033031,10.398392000002787,10.965183399966918,k,1.0762668999377638,None,927729,001,2025-09-25_17h26.12.014,Priming_gender,,2025.1.1,60.38249900868263,2025-09-25 17h26.15.215412 +0700,
ปริญญา,อาภรณ์,None,ปริญญา,men.png,ปริญญา,6,6,0,,,,j,0.4274375999812037,None,,,,,0,6,6,5,11.008968899957836,,,,,,,,,,,,,,,,,,,,,,,,,10.996833299985155,11.008968899957836,11.008968899957836,11.008968899957836,11.008968899957836,0.03162449994124472,11.008968899957836,0.33285959996283054,11.502577599952929,,11.44886480004061,j,0.4274375999812037,None,927729,001,2025-09-25_17h26.12.014,Priming_gender,,2025.1.1,60.38249900868263,2025-09-25 17h26.15.215412 +0700,
None,None,None,None,women.png,ชัยวัฒน์,7,7,0,,,,,,,,,,,0,7,7,24,11.502577599952929,,,,,,,,,,,,,,,,,,,,,,,,,11.488649599952623,11.502577599952929,11.502577599952929,11.502577599952929,11.502577599952929,0.03978249989449978,11.502577599952929,0.34945429989602417,,,,,,,,,,,,,,,
