thisRow.t,notes,Name,Face,NameGender,ResponseKey,RT,Timeout,participant,session,
,,สายใจ,face2_m.png,f,j,0.7503123999922536,No,debug,001,
,,สมหญิง,face8_m.png,f,j,0.4503252999857068,No,debug,001,
,,แก้วตา,face4_w.png,f,j,1.1014620999922045,No,debug,001,
,,สายใจ,face9_m.png,f,j,0.3670554000127595,No,debug,001,
,,ใบเฟิร์น,face3_w.png,f,j,0.45016589999431744,No,debug,001,
,,ประเสริฐ,face10_w.png,m,j,0.26723430000129156,No,debug,001,
,,สมปอง,face3_w.png,m,j,0.5836863000004087,No,debug,001,
,,สมชาย,face5_w.png,m,j,0.26783549998071976,No,debug,001,
,,ฟ้าใส,face2_m.png,f,j,0.33404809999046847,No,debug,001,
,,ประเสริฐ,face6_w.png,m,j,0.3669806999969296,No,debug,001,
,,พอใจ,face8_m.png,f,j,0.3167618000006769,No,debug,001,
,,บุญชู,face8_w.png,m,j,0.3006374999822583,No,debug,001,
,,ทองดี,face7_w.png,m,j,0.11693200000445358,No,debug,001,
,,ทองดี,face9_w.png,m,j,0.4002852000121493,No,debug,001,
,,ทับทิม,face3_m.png,f,j,0.43371789998491295,No,debug,001,
,,สมชาย,face7_w.png,m,j,0.41708240000298247,No,debug,001,
,,พิกุล,face7_m.png,f,j,0.48378280000179075,No,debug,001,
,,วันเพ็ญ,face5_m.png,f,j,0.5004289999778848,No,debug,001,
,,แก้วตา,face8_m.png,f,j,0.5501872999884654,No,debug,001,
,,ประเสริฐ,face5_m.png,m,j,0.5337651000008918,No,debug,001,
,,พอใจ,face2_w.png,f,j,0.33367819999693893,No,debug,001,
,,สมหญิง,face4_m.png,f,j,0.8838670000259299,No,debug,001,
,,พิกุล,face9_m.png,f,j,0.35029230001964606,No,debug,001,
,,มานะ,face4_m.png,m,j,0.26727329997811466,No,debug,001,
,,ดวงแก้ว,face2_w.png,f,j,0.13389329999336042,No,debug,001,
,,มานะ,face7_m.png,m,j,0.300102400011383,No,debug,001,
,,บุญชู,face10_w.png,m,j,0.2505090000049677,No,debug,001,
,,สมปอง,face2_m.png,m,j,0.28369010001188144,No,debug,001,
,,แก้วตา,face1_m.png,f,j,0.35025109999696724,No,debug,001,
,,พอใจ,face5_w.png,f,j,0.3004519999958575,No,debug,001,
,,ชูศักดิ์,face3_m.png,m,j,0.2671431000053417,No,debug,001,
,,ทองดี,face10_m.png,m,j,0.16782810000586323,No,debug,001,
,,ทับทิม,face8_w.png,f,j,0.3173308999976143,No,debug,001,
,,มั่นคง,face5_m.png,m,j,0.3006386999913957,No,debug,001,
,,สมชาย,face10_m.png,m,j,0.2843379999976605,No,debug,001,
,,พอใจ,face3_m.png,f,j,0.2839706000231672,No,debug,001,
,,ประเสริฐ,face6_m.png,m,j,0.2504000999906566,No,debug,001,
,,ประทีป,face10_w.png,m,j,0.383859499997925,No,debug,001,
,,ชูศักดิ์,face4_m.png,m,j,0.3006685000145808,No,debug,001,
,,ชูศักดิ์,face2_m.png,m,j,0.4675140999897849,No,debug,001,
,,ทองดี,face5_w.png,m,j,0.33376009998028167,No,debug,001,
,,ทองดี,face3_m.png,m,j,0.48320039999089204,No,debug,001,
,,ทองดี,face2_w.png,m,j,0.3171818999981042,No,debug,001,
,,สายใจ,face5_w.png,f,j,0.33375429999432527,No,debug,001,
,,พอใจ,face6_w.png,f,j,0.3169664000160992,No,debug,001,
,,ชูศักดิ์,face3_w.png,m,j,0.466918899997836,No,debug,001,
,,พอใจ,face5_m.png,f,j,0.26691820000996813,No,debug,001,
,,ชูศักดิ์,face7_w.png,m,j,0.4507292000052985,No,debug,001,
,,สมปอง,face6_m.png,m,j,0.4341237999906298,No,debug,001,
,,ฟ้าใส,face3_w.png,f,j,0.5670458000095095,No,debug,001,
,,แก้วตา,face6_m.png,f,j,0.4003704999922775,No,debug,001,
,,มั่นคง,face10_w.png,m,j,0.334008800011361,No,debug,001,
,,พิกุล,face5_w.png,f,j,0.31719500001054257,No,debug,001,
,,สมหญิง,face10_m.png,f,j,0.31977489998098463,No,debug,001,
,,ฟ้าใส,face6_m.png,f,j,0.5012767000007443,No,debug,001,
,,ดวงแก้ว,face2_m.png,f,j,0.33402780001051724,No,debug,001,
,,ประเสริฐ,face4_w.png,m,j,0.38427239999873564,No,debug,001,
,,ประเสริฐ,face1_w.png,m,j,0.5168984000047203,No,debug,001,
,,ทองดี,face9_m.png,m,j,0.367285999993328,No,debug,001,
,,ใบเฟิร์น,face4_w.png,f,j,1.3339664000086486,No,debug,001,
,,ใบเฟิร์น,face5_m.png,f,j,0.3003255999938119,No,debug,001,
,,ฟ้าใส,face6_w.png,f,j,0.43384990000049584,No,debug,001,
,,ใบเฟิร์น,face6_w.png,f,j,0.4336106999835465,No,debug,001,
,,ดวงแก้ว,face7_w.png,f,j,0.3673601000045892,No,debug,001,
,,ทับทิม,face3_w.png,f,j,0.33360900002298877,No,debug,001,
,,ทับทิม,face10_w.png,f,j,0.3002817000087816,No,debug,001,
,,สายใจ,face2_w.png,f,j,0.35038519999943674,No,debug,001,
,,มานะ,face6_w.png,m,j,0.5510692000098061,No,debug,001,
,,ชูศักดิ์,face7_m.png,m,j,0.35028590000001714,No,debug,001,
,,ประเสริฐ,face2_m.png,m,j,0.2176482000213582,No,debug,001,
,,บุญชู,face7_m.png,m,j,0.36723169998731464,No,debug,001,
,,มั่นคง,face7_w.png,m,j,0.41700590000255033,No,debug,001,
,,สมหมาย,face8_w.png,m,j,0.36711160000413656,No,debug,001,
,,วันเพ็ญ,face1_w.png,f,j,0.15032019998761825,No,debug,001,
,,ทับทิม,face2_m.png,f,j,1.16729669997585,No,debug,001,
,,สมชาย,face6_w.png,m,j,0.5336803999962285,No,debug,001,
,,สมชาย,face5_m.png,m,j,0.28401010000379756,No,debug,001,
,,ประเสริฐ,face7_w.png,m,j,0.2171972999931313,No,debug,001,
,,ประเสริฐ,face5_w.png,m,j,0.3174670999869704,No,debug,001,
,,ชูศักดิ์,face2_w.png,m,j,0.1671615999948699,No,debug,001,
,,ดวงแก้ว,face5_m.png,f,j,0.4168883999809623,No,debug,001,
,,พิกุล,face7_w.png,f,j,0.35024430000339635,No,debug,001,
,,พิกุล,face4_m.png,f,j,0.4339311999792699,No,debug,001,
,,สายใจ,face8_w.png,f,j,0.33399059998919256,No,debug,001,
,,สมหญิง,face1_w.png,f,j,0.5504289999953471,No,debug,001,
,,วันเพ็ญ,face6_m.png,f,j,0.3337489999830723,No,debug,001,
,,สมหญิง,face9_m.png,f,j,0.350585999985924,No,debug,001,
,,ชูศักดิ์,face6_w.png,m,j,0.25016320002032444,No,debug,001,
,,สมหญิง,face4_w.png,f,j,0.2836730999988504,No,debug,001,
,,สายใจ,face10_m.png,f,j,0.35060099998372607,No,debug,001,
,,ประทีป,face4_m.png,m,j,0.43377719999989495,No,debug,001,
,,ดวงแก้ว,face1_m.png,f,j,0.46716279999236576,No,debug,001,
,,สายใจ,face5_m.png,f,j,0.2668646000092849,No,debug,001,
,,ประเสริฐ,face8_m.png,m,j,0.26702249998925254,No,debug,001,
,,สมชาย,face7_m.png,m,j,0.21695349999936298,No,debug,001,
,,พิกุล,face9_w.png,f,j,0.26721019999240525,No,debug,001,
,,มั่นคง,face4_m.png,m,j,0.26708280001184903,No,debug,001,
,,ประเสริฐ,face10_m.png,m,j,0.30044819999602623,No,debug,001,
,,สมปอง,face3_m.png,m,j,0.30023500000243075,No,debug,001,
,,วันเพ็ญ,face1_m.png,f,j,0.3338852000015322,No,debug,001,
,,มานะ,face9_w.png,m,j,0.4502777000016067,No,debug,001,
,,ใบเฟิร์น,face1_m.png,f,j,0.25056519999634475,No,debug,001,
,,ทับทิม,face9_m.png,f,j,0.7503789000038523,No,debug,001,
,,มั่นคง,face10_m.png,m,j,0.33359480000217445,No,debug,001,
,,สมหมาย,face9_w.png,m,j,0.23349780001444742,No,debug,001,
,,พิกุล,face5_m.png,f,j,0.3502945000072941,No,debug,001,
,,ทับทิม,face4_m.png,f,j,0.48389200001838617,No,debug,001,
,,ฟ้าใส,face2_w.png,f,j,0.28375420000520535,No,debug,001,
,,ทับทิม,face9_w.png,f,j,0.2504190999898128,No,debug,001,
,,ทับทิม,face7_w.png,f,j,0.23376750000170432,No,debug,001,
,,ประทีป,face8_m.png,m,j,0.333791699988069,No,debug,001,
,,ใบเฟิร์น,face1_w.png,f,j,0.250347299996065,No,debug,001,
,,ชูศักดิ์,face5_m.png,m,j,0.6003733999968972,No,debug,001,
,,ชูศักดิ์,face8_w.png,m,j,0.6170219999912661,No,debug,001,
,,สมปอง,face4_w.png,m,j,0.2671318000066094,No,debug,001,
,,สมปอง,face8_m.png,m,j,0.36732210000627674,No,debug,001,
,,มานะ,face8_m.png,m,j,0.4337307999958284,No,debug,001,
,,มานะ,face1_m.png,m,j,0.3671473000140395,No,debug,001,
,,พอใจ,face6_m.png,f,j,0.35026820001075976,No,debug,001,
,,วันเพ็ญ,face8_m.png,f,j,0.3340955000021495,No,debug,001,
,,ทับทิม,face6_w.png,f,j,0.25056399998720735,No,debug,001,
,,ใบเฟิร์น,face9_w.png,f,j,0.2504268000193406,No,debug,001,
,,พอใจ,face10_w.png,f,j,0.05058219999773428,No,debug,001,
,,วันเพ็ญ,face4_m.png,f,j,0.31689190000179224,No,debug,001,
,,พิกุล,face6_w.png,f,j,0.3010116000077687,No,debug,001,
,,สมหญิง,face2_m.png,f,j,0.28393160001724027,No,debug,001,
,,ฟ้าใส,face7_w.png,f,j,0.20056990001467057,No,debug,001,
,,มั่นคง,face3_w.png,m,j,0.05032430001301691,No,debug,001,
,,มานะ,face2_m.png,m,j,0.467099400004372,No,debug,001,
,,ทับทิม,face6_m.png,f,j,0.33372379999491386,No,debug,001,
,,สมหมาย,face10_m.png,m,j,0.21709350001765415,No,debug,001,
,,ทองดี,face1_w.png,m,j,0.33381399998324923,No,debug,001,
,,ทับทิม,face10_m.png,f,j,0.30102349998196587,No,debug,001,
,,สมหญิง,face8_w.png,f,j,0.2671822999836877,No,debug,001,
,,ใบเฟิร์น,face9_m.png,f,j,0.23423269999329932,No,debug,001,
,,มานะ,face5_w.png,m,j,0.2669889999961015,No,debug,001,
,,ประทีป,face7_w.png,m,j,0.28390399998170324,No,debug,001,
,,สมปอง,face4_m.png,m,j,0.2170625000144355,No,debug,001,
,,บุญชู,face5_w.png,m,j,0.31702129999757744,No,debug,001,
,,สมปอง,face8_w.png,m,j,0.3170088999904692,No,debug,001,
,,มานะ,face10_m.png,m,j,0.28392299998085946,No,debug,001,
,,สายใจ,face9_w.png,f,j,0.11740089999511838,No,debug,001,
,,ฟ้าใส,face10_m.png,f,j,0.4001699000073131,No,debug,001,
,,สมชาย,face8_m.png,m,j,0.23359849999542348,No,debug,001,
,,ประเสริฐ,face3_w.png,m,j,0.1669670999981463,No,debug,001,
,,ทองดี,face3_w.png,m,j,0.21692119998624548,No,debug,001,
,,วันเพ็ญ,face2_m.png,f,j,0.30043170001590624,No,debug,001,
,,ฟ้าใส,face3_m.png,f,j,0.33386529999552295,No,debug,001,
,,วันเพ็ญ,face6_w.png,f,j,0.26723080000374466,No,debug,001,
,,สมปอง,face2_w.png,m,j,0.30025830000522546,No,debug,001,
,,แก้วตา,face3_m.png,f,j,None,Yes,debug,001,
,,ประเสริฐ,face2_w.png,m,j,0.3502122999925632,No,debug,001,
,,สมชาย,face8_w.png,m,j,0.46727959997951984,No,debug,001,
,,สมหญิง,face6_w.png,f,j,0.33360509999329224,No,debug,001,
,,ชูศักดิ์,face5_w.png,m,j,0.3339740000083111,No,debug,001,
,,พิกุล,face3_w.png,f,j,0.3505816000106279,No,debug,001,
,,สมปอง,face7_w.png,m,j,0.26753959999768995,No,debug,001,
,,แก้วตา,face8_w.png,f,j,0.3169398999889381,No,debug,001,
,,วันเพ็ญ,face7_m.png,f,j,0.28373359999386594,No,debug,001,
,,สมหญิง,face10_w.png,f,j,0.8168679999944288,No,debug,001,
,,ฟ้าใส,face4_m.png,f,j,0.133859499997925,No,debug,001,
,,บุญชู,face1_w.png,m,j,0.45025670001632534,No,debug,001,
,,สมหญิง,face7_m.png,f,j,0.6347498999966774,No,debug,001,
,,มั่นคง,face5_w.png,m,j,0.24720509999315254,No,debug,001,
,,มานะ,face3_m.png,m,j,0.7173390999960247,No,debug,001,
,,บุญชู,face3_m.png,m,j,0.43390120001276955,No,debug,001,
,,ประเสริฐ,face8_w.png,m,j,0.6169447000138462,No,debug,001,
,,ใบเฟิร์น,face8_m.png,f,j,0.5334580999915488,No,debug,001,
,,ดวงแก้ว,face10_w.png,f,j,0.583613199996762,No,debug,001,
,,สมหญิง,face9_w.png,f,j,0.551164600008633,No,debug,001,
,,สายใจ,face7_w.png,f,j,0.4339226000010967,No,debug,001,
,,ประทีป,face6_w.png,m,j,0.31717669998761266,No,debug,001,
,,ประเสริฐ,face9_w.png,m,j,0.31700569999520667,No,debug,001,
,,มานะ,face10_w.png,m,j,0.3669752999849152,No,debug,001,
,,สมชาย,face1_w.png,m,j,0.36721150000812486,No,debug,001,
,,ทองดี,face6_m.png,m,j,0.6172414000029676,No,debug,001,
,,ประทีป,face7_m.png,m,j,0.48416789999464527,No,debug,001,
,,มานะ,face1_w.png,m,j,0.4003736000158824,No,debug,001,
,,สมหมาย,face9_m.png,m,j,0.13367149999248795,No,debug,001,
,,ใบเฟิร์น,face5_w.png,f,j,0.41710890000103973,No,debug,001,
,,สมหญิง,face3_w.png,f,j,0.5507849999994505,No,debug,001,
,,วันเพ็ญ,face4_w.png,f,j,0.31709440000122413,No,debug,001,
,,มานะ,face7_w.png,m,j,0.20059459999902174,No,debug,001,
,,สมหมาย,face2_w.png,m,j,0.23341759998584166,No,debug,001,
,,บุญชู,face2_w.png,m,j,0.40049599998747,No,debug,001,
,,ชูศักดิ์,face1_m.png,m,j,0.33395840000594035,No,debug,001,
,,บุญชู,face5_m.png,m,j,None,Yes,debug,001,
,,สมปอง,face5_w.png,m,j,0.3007252000097651,No,debug,001,
,,วันเพ็ญ,face7_w.png,f,j,0.3834445999818854,No,debug,001,
,,ฟ้าใส,face5_m.png,f,j,0.20040679999510758,No,debug,001,
,,สายใจ,face6_w.png,f,j,0.5336714000150096,No,debug,001,
,,ประทีป,face9_w.png,m,j,0.168027899984736,No,debug,001,
,,วันเพ็ญ,face3_w.png,f,j,0.3361006999912206,No,debug,001,
,,สมปอง,face6_w.png,m,j,0.38354909999179654,No,debug,001,
,,สายใจ,face4_w.png,f,j,0.32006480000563897,No,debug,001,
,,แก้วตา,face5_m.png,f,j,0.5503118999768049,No,debug,001,
,,สมหญิง,face2_w.png,f,j,0.40049319999525324,No,debug,001,
,,มั่นคง,face2_m.png,m,j,0.3843336999998428,No,debug,001,
,,แก้วตา,face9_m.png,f,j,0.40030989999650046,No,debug,001,
,,ประทีป,face1_m.png,m,j,0.3196213000046555,No,debug,001,
,,สมชาย,face9_w.png,m,j,0.5012099999876227,No,debug,001,
,,มานะ,face6_m.png,m,j,0.5336439999809954,No,debug,001,
,,ชูศักดิ์,face8_m.png,m,j,0.2170936000184156,No,debug,001,
,,ฟ้าใส,face1_m.png,f,j,0.11765170001308434,No,debug,001,
,,บุญชู,face2_m.png,m,j,None,Yes,debug,001,
,,ใบเฟิร์น,face7_m.png,f,j,0.15046740000252612,No,debug,001,
,,ประเสริฐ,face1_m.png,m,j,0.21703729999717325,No,debug,001,
,,มานะ,face3_w.png,m,j,0.3503545999992639,No,debug,001,
,,สมหมาย,face3_m.png,m,j,0.2002972000045702,No,debug,001,
,,สมหมาย,face5_w.png,m,j,0.26726870000129566,No,debug,001,
,,ทับทิม,face2_w.png,f,j,0.36689480001223274,No,debug,001,
,,แก้วตา,face6_w.png,f,j,0.5839496999979019,No,debug,001,
,,ดวงแก้ว,face6_m.png,f,j,0.4003075000073295,No,debug,001,
,,สายใจ,face7_m.png,f,j,0.3867251000192482,No,debug,001,
,,มั่นคง,face1_w.png,m,j,0.5669554000196513,No,debug,001,
,,ประทีป,face3_w.png,m,j,None,Yes,debug,001,
,,สมหมาย,face6_w.png,m,j,None,Yes,debug,001,
,,สมหมาย,face6_m.png,m,j,None,Yes,debug,001,
,,ดวงแก้ว,face9_m.png,f,j,0.26701719997799955,No,debug,001,
,,ฟ้าใส,face8_w.png,f,j,0.1862288999836892,No,debug,001,
,,สมหมาย,face5_m.png,m,j,None,Yes,debug,001,
,,สมชาย,face10_w.png,m,j,0.2837098000163678,No,debug,001,
,,บุญชู,face1_m.png,m,j,None,Yes,debug,001,
,,พอใจ,face9_m.png,f,j,0.08386620000237599,No,debug,001,
,,ทองดี,face6_w.png,m,j,0.23368490001303144,No,debug,001,
,,วันเพ็ญ,face8_w.png,f,j,0.266990000003716,No,debug,001,
,,พอใจ,face4_m.png,f,j,0.2501162000116892,No,debug,001,
,,ประเสริฐ,face9_m.png,m,j,0.11459450001711957,No,debug,001,
,,มานะ,face5_m.png,m,j,0.21696159997372888,No,debug,001,
,,ชูศักดิ์,face4_w.png,m,j,0.10016010000254028,No,debug,001,
,,มั่นคง,face2_w.png,m,j,0.06699740001931787,No,debug,001,
,,ดวงแก้ว,face6_w.png,f,j,0.3337236999941524,No,debug,001,
,,มั่นคง,face6_w.png,m,j,0.2837318000092637,No,debug,001,
,,สมหมาย,face3_w.png,m,j,0.18343149998690933,No,debug,001,
,,สมชาย,face2_w.png,m,j,0.35029539998504333,No,debug,001,
,,สายใจ,face1_m.png,f,j,0.18357220001053065,No,debug,001,
,,มานะ,face2_w.png,m,j,0.23365019998163916,No,debug,001,
,,วันเพ็ญ,face3_m.png,f,k,0.31704930000705644,No,debug,001,
,,พอใจ,face1_m.png,f,k,0.18382829998154193,No,debug,001,
,,แก้วตา,face9_w.png,f,k,0.3833951000124216,No,debug,001,
,,พิกุล,face8_m.png,f,k,0.03421499999240041,No,debug,001,
,,พอใจ,face9_w.png,f,k,0.317143100022804,No,debug,001,
,,ทองดี,face2_m.png,m,k,0.433902599994326,No,debug,001,
,,ฟ้าใส,face1_w.png,f,k,0.9343469000014011,No,debug,001,
,,ดวงแก้ว,face3_m.png,f,k,0.6839336999983061,No,debug,001,
,,สมหญิง,face3_m.png,f,k,0.48347990002366714,No,debug,001,
,,ใบเฟิร์น,face6_m.png,f,k,0.683611300017219,No,debug,001,
,,บุญชู,face4_m.png,m,k,0.7172624999948312,No,debug,001,
,,พิกุล,face1_m.png,f,k,0.6172194000100717,No,debug,001,
,,ประทีป,face9_m.png,m,k,0.33356550001190044,No,debug,001,
,,ใบเฟิร์น,face10_w.png,f,k,0.5168930999934673,No,debug,001,
,,พอใจ,face4_w.png,f,k,0.45082189998356625,No,debug,001,
,,สมปอง,face10_w.png,m,j,1.2835568999871612,No,debug,001,
,,สมชาย,face6_m.png,m,j,0.7175286000128835,No,debug,001,
,,พิกุล,face3_m.png,f,j,1.050611899991054,No,debug,001,
,,ดวงแก้ว,face10_m.png,f,j,0.351192500005709,No,debug,001,
,,ทองดี,face5_m.png,m,k,0.8335560999985319,No,debug,001,
,,มานะ,face4_w.png,m,k,0.4502873000164982,No,debug,001,
,,ดวงแก้ว,face4_m.png,f,k,0.5504268000076991,No,debug,001,
,,วันเพ็ญ,face2_w.png,f,k,0.2003882999997586,No,debug,001,
,,สมชาย,face3_w.png,m,k,0.4336421999905724,No,debug,001,
,,สมหญิง,face1_m.png,f,k,0.6674659999844152,No,debug,001,
,,ดวงแก้ว,face8_w.png,f,k,0.8832592000253499,No,debug,001,
,,บุญชู,face8_m.png,m,k,0.7173484000086319,No,debug,001,
,,ทองดี,face4_m.png,m,k,0.45093290001386777,No,debug,001,
,,ฟ้าใส,face9_w.png,f,k,1.0167240000155289,No,debug,001,
,,ทับทิม,face7_m.png,f,k,0.5171832999913022,No,debug,001,
,,ทองดี,face8_m.png,m,k,0.2172936999995727,No,debug,001,
,,สมชาย,face1_m.png,m,k,0.8002501000009943,No,debug,001,
,,ทับทิม,face5_w.png,f,k,0.7501425000082236,No,debug,001,
,,สมหมาย,face7_w.png,m,k,0.2669902999768965,No,debug,001,
,,ดวงแก้ว,face8_m.png,f,k,0.16714809997938573,No,debug,001,
,,พิกุล,face1_w.png,f,k,0.48438479998731054,No,debug,001,
,,ดวงแก้ว,face3_w.png,f,k,0.2168688999954611,No,debug,001,
,,ใบเฟิร์น,face2_m.png,f,k,0.40051150001818314,No,debug,001,
,,แก้วตา,face10_w.png,f,k,0.3169824999931734,No,debug,001,
,,พอใจ,face2_m.png,f,k,0.8504011000040919,No,debug,001,
,,ใบเฟิร์น,face2_w.png,f,k,0.28367100001196377,No,debug,001,
,,ประเสริฐ,face4_m.png,m,k,0.4004066000052262,No,debug,001,
,,บุญชู,face9_m.png,m,k,0.36686060001375154,No,debug,001,
,,สมหญิง,face5_m.png,f,k,0.20049960000324063,No,debug,001,
,,สมหมาย,face7_m.png,m,k,0.350510900025256,No,debug,001,
,,บุญชู,face9_w.png,m,k,0.25022899999748915,No,debug,001,
,,มานะ,face8_w.png,m,k,0.3503940000082366,No,debug,001,
,,พิกุล,face10_w.png,f,k,0.06700480001745746,No,debug,001,
,,สมหมาย,face4_m.png,m,k,0.25018159998580813,No,debug,001,
,,สมหญิง,face7_w.png,f,k,0.267024600005243,No,debug,001,
,,ประทีป,face1_w.png,m,k,0.3837825999944471,No,debug,001,
,,มั่นคง,face3_m.png,m,k,0.38364880002336577,No,debug,001,
,,แก้วตา,face3_w.png,f,j,0.5001800000027288,No,debug,001,
,,พิกุล,face8_w.png,f,k,None,Yes,debug,001,
,,สมปอง,face5_m.png,m,k,0.25053610000759363,No,debug,001,
,,แก้วตา,face2_w.png,f,k,0.4506143999751657,No,debug,001,
,,แก้วตา,face10_m.png,f,k,0.5172644999984186,No,debug,001,
,,พิกุล,face4_w.png,f,k,0.35016539998468943,No,debug,001,
,,ประทีป,face5_m.png,m,k,0.38424479999230243,No,debug,001,
,,ทองดี,face1_m.png,m,k,0.4003734999860171,No,debug,001,
,,พิกุล,face6_m.png,f,k,0.2837156000023242,No,debug,001,
,,ฟ้าใส,face7_m.png,f,k,0.41693540001870133,No,debug,001,
,,ทองดี,face7_m.png,m,k,0.38377819999004714,No,debug,001,
,,สมปอง,face9_m.png,m,k,0.23636310000438243,No,debug,001,
,,ชูศักดิ์,face9_w.png,m,k,0.19692259997827932,No,debug,001,
,,ดวงแก้ว,face4_w.png,f,k,0.6025908000010531,No,debug,001,
,,ประเสริฐ,face3_m.png,m,k,0.36697109998203814,No,debug,001,
,,ใบเฟิร์น,face10_m.png,f,k,0.28362119998200797,No,debug,001,
,,ทับทิม,face5_m.png,f,k,0.38378709999960847,No,debug,001,
,,มั่นคง,face4_w.png,m,k,0.5680252000165638,No,debug,001,
,,ใบเฟิร์น,face3_m.png,f,k,0.8502065000066068,No,debug,001,
,,พิกุล,face2_m.png,f,k,0.40067080000881106,No,debug,001,
,,พอใจ,face7_w.png,f,k,0.450122599984752,No,debug,001,
,,ฟ้าใส,face9_m.png,f,k,0.21718579999287613,No,debug,001,
,,สมปอง,face1_m.png,m,k,0.5840286000166088,No,debug,001,
,,ประทีป,face2_m.png,m,k,0.4501794000098016,No,debug,001,
,,ประทีป,face6_m.png,m,k,0.4506413000053726,No,debug,001,
,,สมชาย,face2_m.png,m,k,0.16746530000818893,No,debug,001,
,,ทับทิม,face4_w.png,f,k,0.15011639997828752,No,debug,001,
,,สายใจ,face3_w.png,f,k,0.3836060000176076,No,debug,001,
,,ฟ้าใส,face4_w.png,f,k,0.4001838999975007,No,debug,001,
,,พอใจ,face1_w.png,f,k,0.18371969999861903,No,debug,001,
,,ฟ้าใส,face8_m.png,f,k,0.05047129999729805,No,debug,001,
,,พอใจ,face7_m.png,f,k,0.10022870000102557,No,debug,001,
,,ประทีป,face3_m.png,m,k,0.33360349998110905,No,debug,001,
,,วันเพ็ญ,face9_m.png,f,k,0.15040419998695143,No,debug,001,
,,บุญชู,face7_w.png,m,k,0.15033959998982027,No,debug,001,
,,บุญชู,face6_w.png,m,k,0.4338745000131894,No,debug,001,
,,สมปอง,face7_m.png,m,k,0.20015569997485727,No,debug,001,
,,ทองดี,face4_w.png,m,k,0.13375859998632222,No,debug,001,
,,สายใจ,face1_w.png,f,k,0.03357960001449101,No,debug,001,
,,ฟ้าใส,face10_w.png,f,j,0.3672062999976333,No,debug,001,
,,ชูศักดิ์,face10_m.png,m,k,0.35059580000233836,No,debug,001,
,,ชูศักดิ์,face10_w.png,m,j,0.26682489999802783,No,debug,001,
,,มานะ,face9_m.png,m,j,0.36714419999043457,No,debug,001,
,,แก้วตา,face7_m.png,f,k,0.20072689998778515,No,debug,001,
,,สายใจ,face10_w.png,f,k,0.21707210000022314,No,debug,001,
,,มั่นคง,face1_m.png,m,k,0.31799099998897873,No,debug,001,
,,พอใจ,face8_w.png,f,k,0.4670234000077471,No,debug,001,
,,ใบเฟิร์น,face7_w.png,f,k,0.6673092999844812,No,debug,001,
,,มั่นคง,face8_w.png,m,k,0.5503926000092179,No,debug,001,
,,ชูศักดิ์,face1_w.png,m,k,0.11688069999217987,No,debug,001,
,,สมชาย,face4_w.png,m,k,0.5168938999995589,No,debug,001,
,,สมปอง,face9_w.png,m,k,0.2667899999942165,No,debug,001,
,,สายใจ,face6_m.png,f,k,0.8170733000151813,No,debug,001,
,,สมหญิง,face5_w.png,f,k,0.11700450000353158,No,debug,001,
,,สมหมาย,face2_m.png,m,k,1.3340849000087474,No,debug,001,
,,ทับทิม,face1_m.png,f,k,0.5004031000135001,No,debug,001,
,,สมปอง,face10_m.png,m,k,0.6170055999828037,No,debug,001,
,,สมหมาย,face8_m.png,m,k,0.5672365999780595,No,debug,001,
,,ฟ้าใส,face5_w.png,f,k,0.35044720000587404,No,debug,001,
,,แก้วตา,face4_m.png,f,k,0.13338549999753013,No,debug,001,
,,ประทีป,face2_w.png,m,k,0.20035870000720024,No,debug,001,
,,สมชาย,face9_m.png,m,k,0.05029129999456927,No,debug,001,
,,มั่นคง,face6_m.png,m,k,0.7672711000195704,No,debug,001,
,,พิกุล,face10_m.png,f,k,0.08369989998755045,No,debug,001,
,,มั่นคง,face8_m.png,m,k,0.3834884999960195,No,debug,001,
,,สายใจ,face4_m.png,f,k,0.38348460002453066,No,debug,001,
,,ใบเฟิร์น,face8_w.png,f,k,0.10026080001262017,No,debug,001,
,,บุญชู,face4_w.png,m,k,0.21733129999483936,No,debug,001,
,,สมหญิง,face6_m.png,f,k,0.16692349998629652,No,debug,001,
,,มั่นคง,face9_w.png,m,k,0.18361780000850558,No,debug,001,
,,ทองดี,face10_w.png,m,k,0.16703809998580255,No,debug,001,
,,พิกุล,face2_w.png,f,k,None,Yes,debug,001,
,,แก้วตา,face1_w.png,f,k,0.1677503999962937,No,debug,001,
,,สมหมาย,face4_w.png,m,k,0.30016370001249015,No,debug,001,
,,มั่นคง,face7_m.png,m,k,None,Yes,debug,001,
,,แก้วตา,face7_w.png,f,k,0.5340557000017725,No,debug,001,
,,ชูศักดิ์,face6_m.png,m,k,0.33396170000196435,No,debug,001,
,,สมหมาย,face10_w.png,m,k,0.18406219998723827,No,debug,001,
,,พอใจ,face10_m.png,f,k,0.28361579999909736,No,debug,001,
,,สมปอง,face1_w.png,m,k,0.23392650001915172,No,debug,001,
,,ดวงแก้ว,face1_w.png,f,k,0.25026830000570044,No,debug,001,
,,สายใจ,face8_m.png,f,k,0.20137319999048486,No,debug,001,
,,แก้วตา,face2_m.png,f,k,0.16708290000678971,No,debug,001,
,,สมชาย,face4_m.png,m,k,0.2008870999852661,No,debug,001,
,,มั่นคง,face9_m.png,m,k,0.15082300000358373,No,debug,001,
,,ประทีป,face5_w.png,m,k,0.3002847000025213,No,debug,001,
,,ประเสริฐ,face7_m.png,m,k,0.21700870001222938,No,debug,001,
,,ทับทิม,face8_m.png,f,k,0.134494400001131,No,debug,001,
,,แก้วตา,face5_w.png,f,k,0.2169059999869205,No,debug,001,
,,ประทีป,face8_w.png,m,k,0.11709679997875355,No,debug,001,
,,วันเพ็ญ,face10_w.png,f,k,0.21701429999666288,No,debug,001,
,,วันเพ็ญ,face5_w.png,f,k,0.25042160000884905,No,debug,001,
,,ประทีป,face10_m.png,m,k,0.21705040000961162,No,debug,001,
,,ใบเฟิร์น,face4_m.png,f,k,0.20007279998390004,No,debug,001,
,,วันเพ็ญ,face10_m.png,f,k,0.13366160000441596,No,debug,001,
,,บุญชู,face10_m.png,m,k,0.10122159999446012,No,debug,001,
,,วันเพ็ญ,face9_w.png,f,k,0.3169163000129629,No,debug,001,
,,สมหมาย,face1_m.png,m,k,0.01754639999126084,No,debug,001,
,,ดวงแก้ว,face7_m.png,f,k,0.35034369997447357,No,debug,001,
,,สมชาย,face3_m.png,m,k,0.1680544000118971,No,debug,001,
,,ดวงแก้ว,face9_w.png,f,k,0.18345049998606555,No,debug,001,
,,ทองดี,face8_w.png,m,k,0.3168672999890987,No,debug,001,
,,พอใจ,face3_w.png,f,k,0.28356309997616336,No,debug,001,
,,ดวงแก้ว,face5_w.png,f,k,0.18362039999919944,No,debug,001,
,,บุญชู,face3_w.png,m,k,0.11685099999886006,No,debug,001,
,,ทับทิม,face1_w.png,f,k,0.25051860001985915,No,debug,001,
,,บุญชู,face6_m.png,m,k,0.2838006999809295,No,debug,001,
,,ประทีป,face4_w.png,m,k,1.2004286000155844,No,debug,001,
,,สายใจ,face3_m.png,f,k,0.45058109998353757,No,debug,001,
,,สมหมาย,face1_w.png,m,k,0.05124390000128187,No,debug,001,
,,ชูศักดิ์,face9_m.png,m,k,0.21717930000158958,No,debug,001,
