thisRow.t,notes,Name,Face,NameGender,ResponseKey,RT,Timeout,participant,session,
,,สมปอง,face1_w.png,m,j,1.2984793999930844,No,Pilot04_EEG,001,
,,พอใจ,face4_m.png,f,k,0.7169325999566354,No,Pilot04_EEG,001,
,,ดวงแก้ว,face3_m.png,f,k,0.8168265999993309,No,Pilot04_EEG,001,
,,บุญชู,face8_m.png,m,k,0.5671195999602787,No,Pilot04_EEG,001,
,,ฟ้าใส,face1_w.png,f,j,1.0502525999909267,No,Pilot04_EEG,001,
,,สมหญิง,face5_w.png,f,j,0.7673390000127256,No,Pilot04_EEG,001,
,,แก้วตา,face10_m.png,f,k,0.7005148000316694,No,Pilot04_EEG,001,
,,สมหญิง,face8_w.png,f,j,0.9503889000043273,No,Pilot04_EEG,001,
,,พิกุล,face7_m.png,f,k,1.217099600005895,No,Pilot04_EEG,001,
,,มานะ,face9_m.png,m,k,1.5172307000029832,No,Pilot04_EEG,001,
,,ดวงแก้ว,face4_m.png,f,k,0.68356680002762,No,Pilot04_EEG,001,
,,สมชาย,face9_m.png,m,k,0.6171553999884054,No,Pilot04_EEG,001,
,,มั่นคง,face6_m.png,m,k,1.2670336000155658,No,Pilot04_EEG,001,
,,สายใจ,face9_m.png,f,k,1.467907699989155,No,Pilot04_EEG,001,
,,บุญชู,face2_m.png,m,k,0.5835445999982767,No,Pilot04_EEG,001,
,,ประทีป,face4_m.png,m,k,0.5337800999986939,No,Pilot04_EEG,001,
,,ทับทิม,face7_m.png,f,k,0.5169036000152119,No,Pilot04_EEG,001,
,,พิกุล,face1_w.png,f,j,0.6836969000287354,No,Pilot04_EEG,001,
,,ใบเฟิร์น,face10_m.png,f,k,0.9502257999847643,No,Pilot04_EEG,001,
,,แก้วตา,face1_w.png,f,j,0.9003408999997191,No,Pilot04_EEG,001,
,,สมหญิง,face9_w.png,f,j,0.6503824999672361,No,Pilot04_EEG,001,
,,ทองดี,face1_m.png,m,k,0.5337490999954753,No,Pilot04_EEG,001,
,,ชูศักดิ์,face1_w.png,m,j,1.0669975000200793,No,Pilot04_EEG,001,
,,ใบเฟิร์น,face7_w.png,f,j,0.9002324999892153,No,Pilot04_EEG,001,
,,สมชาย,face5_w.png,m,j,0.9006917999940924,No,Pilot04_EEG,001,
,,สายใจ,face2_w.png,f,j,1.1010798999923281,No,Pilot04_EEG,001,
,,สมปอง,face10_m.png,m,k,0.8342072000377811,No,Pilot04_EEG,001,
,,ดวงแก้ว,face6_m.png,f,k,0.684272000042256,No,Pilot04_EEG,001,
,,ประทีป,face3_m.png,m,k,0.6169526999583468,No,Pilot04_EEG,001,
,,มั่นคง,face10_w.png,m,j,1.2666836999705993,No,Pilot04_EEG,001,
,,มั่นคง,face9_w.png,m,j,0.8172228999901563,No,Pilot04_EEG,001,
,,มั่นคง,face6_w.png,m,j,0.5669708999921568,No,Pilot04_EEG,001,
,,ฟ้าใส,face6_m.png,f,k,0.8172085999976844,No,Pilot04_EEG,001,
,,ดวงแก้ว,face7_m.png,f,k,0.6502652000053786,No,Pilot04_EEG,001,
,,ใบเฟิร์น,face8_w.png,f,j,0.9171583999996074,No,Pilot04_EEG,001,
,,ประเสริฐ,face9_m.png,m,k,0.7172243000240996,No,Pilot04_EEG,001,
,,บุญชู,face3_w.png,m,j,0.9670447999960743,No,Pilot04_EEG,001,
,,ทับทิม,face4_m.png,f,k,0.8176098000258207,No,Pilot04_EEG,001,
,,ทับทิม,face5_m.png,f,k,1.5004753000102937,No,Pilot04_EEG,001,
,,วันเพ็ญ,face5_w.png,f,j,1.0502877000253648,No,Pilot04_EEG,001,
,,ใบเฟิร์น,face2_m.png,f,k,0.7343440999975428,No,Pilot04_EEG,001,
,,ฟ้าใส,face2_w.png,f,j,0.7669597000349313,No,Pilot04_EEG,001,
,,ดวงแก้ว,face10_m.png,f,k,1.067025399999693,No,Pilot04_EEG,001,
,,พอใจ,face5_m.png,f,k,0.7176600000238977,No,Pilot04_EEG,001,
,,สมหญิง,face1_w.png,f,j,0.6836837000446394,No,Pilot04_EEG,001,
,,สมปอง,face3_m.png,m,k,0.9670608000014909,No,Pilot04_EEG,001,
,,ประทีป,face9_w.png,m,j,1.0837457000161521,No,Pilot04_EEG,001,
,,มั่นคง,face3_m.png,m,k,0.9504070000257343,No,Pilot04_EEG,001,
,,ดวงแก้ว,face5_m.png,f,k,0.8002473000087775,No,Pilot04_EEG,001,
,,แก้วตา,face10_w.png,f,j,0.8504591000382788,No,Pilot04_EEG,001,
,,แก้วตา,face7_w.png,f,j,0.933885200007353,No,Pilot04_EEG,001,
,,พิกุล,face5_m.png,f,k,0.5337605000240728,No,Pilot04_EEG,001,
,,มั่นคง,face2_w.png,m,j,0.6509217999991961,No,Pilot04_EEG,001,
,,สมหมาย,face4_w.png,m,j,0.5507510000024922,No,Pilot04_EEG,001,
,,พิกุล,face5_w.png,f,j,0.6171793000539765,No,Pilot04_EEG,001,
,,สมชาย,face3_w.png,m,j,0.6168403000338003,No,Pilot04_EEG,001,
,,สมปอง,face2_w.png,m,j,0.6171037999447435,No,Pilot04_EEG,001,
,,สมหมาย,face3_w.png,m,j,0.5835291999974288,No,Pilot04_EEG,001,
,,ประเสริฐ,face3_w.png,m,j,0.6501975000137463,No,Pilot04_EEG,001,
,,ประทีป,face8_m.png,m,k,0.6005709999590181,No,Pilot04_EEG,001,
,,ประเสริฐ,face4_m.png,m,k,0.633889899996575,No,Pilot04_EEG,001,
,,สมปอง,face7_m.png,m,k,0.7837856999831274,No,Pilot04_EEG,001,
,,ประทีป,face6_w.png,m,j,0.8838292000000365,No,Pilot04_EEG,001,
,,มั่นคง,face9_m.png,m,k,1.0336620000307448,No,Pilot04_EEG,001,
,,บุญชู,face6_w.png,m,j,0.7002735999994911,No,Pilot04_EEG,001,
,,มานะ,face8_w.png,m,j,0.7169132000417449,No,Pilot04_EEG,001,
,,ใบเฟิร์น,face4_m.png,f,k,1.4002421000041068,No,Pilot04_EEG,001,
,,ประทีป,face7_w.png,m,j,0.86689090001164,No,Pilot04_EEG,001,
,,ดวงแก้ว,face4_w.png,f,j,0.7004477999871597,No,Pilot04_EEG,001,
,,สมหญิง,face1_m.png,f,k,0.9337910999893211,No,Pilot04_EEG,001,
,,พิกุล,face7_w.png,f,j,0.6503035999485292,No,Pilot04_EEG,001,
,,พิกุล,face6_w.png,f,j,0.6843843000242487,No,Pilot04_EEG,001,
,,ประเสริฐ,face2_m.png,m,k,0.6192197999916971,No,Pilot04_EEG,001,
,,ทองดี,face10_w.png,m,j,1.0657039000070654,No,Pilot04_EEG,001,
,,สมปอง,face9_m.png,m,k,1.1165614999481477,No,Pilot04_EEG,001,
,,ทับทิม,face9_w.png,f,j,0.6671075999620371,No,Pilot04_EEG,001,
,,ดวงแก้ว,face8_w.png,f,j,1.3168047000071965,No,Pilot04_EEG,001,
,,วันเพ็ญ,face10_m.png,f,k,1.0497250000480562,No,Pilot04_EEG,001,
,,มั่นคง,face5_w.png,m,j,1.4667911000433378,No,Pilot04_EEG,001,
,,วันเพ็ญ,face6_w.png,f,j,0.9504024999914691,No,Pilot04_EEG,001,
,,ใบเฟิร์น,face3_m.png,f,k,1.6667450000531971,No,Pilot04_EEG,001,
,,ทองดี,face7_m.png,m,k,0.7505908000166528,No,Pilot04_EEG,001,
,,ประเสริฐ,face1_m.png,m,k,0.5835586999892257,No,Pilot04_EEG,001,
,,ดวงแก้ว,face10_w.png,f,j,0.6501772999763489,No,Pilot04_EEG,001,
,,สมหมาย,face3_m.png,m,k,0.6672219000174664,No,Pilot04_EEG,001,
,,สมหมาย,face1_m.png,m,k,1.433822399994824,No,Pilot04_EEG,001,
,,วันเพ็ญ,face3_m.png,f,k,0.4670633000205271,No,Pilot04_EEG,001,
,,ใบเฟิร์น,face6_m.png,f,k,0.7170971000450663,No,Pilot04_EEG,001,
,,สมหญิง,face3_m.png,f,k,0.8337624999694526,No,Pilot04_EEG,001,
,,สมหมาย,face7_w.png,m,j,0.6671328999800608,No,Pilot04_EEG,001,
,,พิกุล,face2_m.png,f,k,0.68368219997501,No,Pilot04_EEG,001,
,,วันเพ็ญ,face1_w.png,f,j,0.616977899975609,No,Pilot04_EEG,001,
,,มั่นคง,face7_m.png,m,k,0.5343116000294685,No,Pilot04_EEG,001,
,,บุญชู,face9_m.png,m,k,0.666836799995508,No,Pilot04_EEG,001,
,,สายใจ,face2_m.png,f,k,0.5502425999729894,No,Pilot04_EEG,001,
,,มานะ,face3_w.png,m,j,0.6837444999837317,No,Pilot04_EEG,001,
,,พอใจ,face9_m.png,f,k,1.0835812999866903,No,Pilot04_EEG,001,
,,พอใจ,face1_w.png,f,j,0.6668563999701291,No,Pilot04_EEG,001,
,,ใบเฟิร์น,face9_m.png,f,k,0.7671758999931626,No,Pilot04_EEG,001,
,,พิกุล,face10_m.png,f,k,0.8669071000185795,No,Pilot04_EEG,001,
,,ทองดี,face1_w.png,m,j,0.6003557000076398,No,Pilot04_EEG,001,
,,ฟ้าใส,face5_m.png,f,k,1.2838632999919355,No,Pilot04_EEG,001,
,,ทับทิม,face4_w.png,f,j,1.2503512000548653,No,Pilot04_EEG,001,
,,สมชาย,face1_w.png,m,j,0.5837309000198729,No,Pilot04_EEG,001,
,,ทับทิม,face2_m.png,f,k,0.8338346999953501,No,Pilot04_EEG,001,
,,สมปอง,face8_w.png,m,j,1.4503794999909587,No,Pilot04_EEG,001,
,,สมชาย,face8_m.png,m,k,0.9003071999759413,No,Pilot04_EEG,001,
,,ชูศักดิ์,face7_w.png,m,j,0.6176672000437975,No,Pilot04_EEG,001,
,,วันเพ็ญ,face5_m.png,f,k,1.8504043000284582,No,Pilot04_EEG,001,
,,ทองดี,face8_w.png,m,j,0.6835058000287972,No,Pilot04_EEG,001,
,,สายใจ,face7_w.png,f,j,0.666838800010737,No,Pilot04_EEG,001,
,,พิกุล,face8_m.png,f,k,1.9839013000018895,No,Pilot04_EEG,001,
,,ใบเฟิร์น,face10_w.png,f,j,1.2008534999913536,No,Pilot04_EEG,001,
,,ประเสริฐ,face4_w.png,m,j,1.2670708000077866,No,Pilot04_EEG,001,
,,มานะ,face2_m.png,m,k,0.7669449000386521,No,Pilot04_EEG,001,
,,ทับทิม,face6_w.png,f,j,1.2336255999980494,No,Pilot04_EEG,001,
,,สมปอง,face8_m.png,m,k,0.9171407000394538,No,Pilot04_EEG,001,
,,ฟ้าใส,face3_m.png,f,k,1.6167637999751605,No,Pilot04_EEG,001,
,,สายใจ,face4_w.png,f,j,0.7002473000320606,No,Pilot04_EEG,001,
,,ทองดี,face9_w.png,m,j,0.6834683999768458,No,Pilot04_EEG,001,
,,ชูศักดิ์,face3_w.png,m,j,1.750829300028272,No,Pilot04_EEG,001,
,,บุญชู,face1_m.png,m,k,0.6507490000221878,No,Pilot04_EEG,001,
,,สมหญิง,face6_m.png,f,k,1.2504676000098698,No,Pilot04_EEG,001,
,,ชูศักดิ์,face4_w.png,m,j,1.8839083000202663,No,Pilot04_EEG,001,
,,ประทีป,face1_m.png,m,k,1.30019340000581,No,Pilot04_EEG,001,
,,พอใจ,face2_w.png,f,j,1.1339866999769583,No,Pilot04_EEG,001,
,,สมหญิง,face4_m.png,f,k,1.6834939999971539,No,Pilot04_EEG,001,
,,ทับทิม,face9_m.png,f,k,1.2838539999793284,No,Pilot04_EEG,001,
,,พิกุล,face6_m.png,f,k,1.0338373000267893,No,Pilot04_EEG,001,
,,สมหญิง,face2_m.png,f,k,0.7336871000006795,No,Pilot04_EEG,001,
,,มั่นคง,face4_w.png,m,j,0.5835969999898225,No,Pilot04_EEG,001,
,,ทองดี,face4_w.png,m,j,0.6176027999608777,No,Pilot04_EEG,001,
,,สมชาย,face1_m.png,m,k,0.9502064000116661,No,Pilot04_EEG,001,
,,ฟ้าใส,face2_m.png,f,k,1.9669828000478446,No,Pilot04_EEG,001,
,,แก้วตา,face2_w.png,f,j,0.9839642000151798,No,Pilot04_EEG,001,
,,ประเสริฐ,face5_w.png,m,j,0.8169619999825954,No,Pilot04_EEG,001,
,,ทับทิม,face8_w.png,f,j,0.983405499951914,No,Pilot04_EEG,001,
,,พิกุล,face3_w.png,f,j,2.300131500000134,No,Pilot04_EEG,001,
,,สมชาย,face10_w.png,m,j,0.6667093999567442,No,Pilot04_EEG,001,
,,สายใจ,face9_w.png,f,j,0.8502137000323273,No,Pilot04_EEG,001,
,,ชูศักดิ์,face5_m.png,m,k,0.750346900022123,No,Pilot04_EEG,001,
,,สมหญิง,face7_m.png,f,k,1.4008038000320084,No,Pilot04_EEG,001,
,,ทองดี,face4_m.png,m,k,0.7837926000356674,No,Pilot04_EEG,001,
,,สมปอง,face5_m.png,m,k,0.7673738999874331,No,Pilot04_EEG,001,
,,ดวงแก้ว,face1_w.png,f,j,0.9002524000243284,No,Pilot04_EEG,001,
,,สมหญิง,face5_m.png,f,k,1.6352260000421666,No,Pilot04_EEG,001,
,,สมชาย,face5_m.png,m,k,0.5669519999646582,No,Pilot04_EEG,001,
,,แก้วตา,face7_m.png,f,k,0.6171363000175916,No,Pilot04_EEG,001,
,,พิกุล,face10_w.png,f,j,0.7000594999990426,No,Pilot04_EEG,001,
,,มานะ,face5_w.png,m,j,0.850971500040032,No,Pilot04_EEG,001,
,,พอใจ,face7_w.png,f,j,0.5504965000436641,No,Pilot04_EEG,001,
,,ชูศักดิ์,face1_m.png,m,k,0.716927100031171,No,Pilot04_EEG,001,
,,วันเพ็ญ,face2_m.png,f,k,0.8002464000019245,No,Pilot04_EEG,001,
,,พอใจ,face5_w.png,f,j,1.800771199981682,No,Pilot04_EEG,001,
,,ประทีป,face5_m.png,m,k,0.7669207000290044,No,Pilot04_EEG,001,
,,มานะ,face4_m.png,m,k,0.4667853999999352,No,Pilot04_EEG,001,
,,สมหญิง,face10_m.png,f,k,0.6502733000088483,No,Pilot04_EEG,001,
,,มั่นคง,face4_m.png,m,k,0.5167764999787323,No,Pilot04_EEG,001,
,,ใบเฟิร์น,face6_w.png,f,j,0.7672077000024728,No,Pilot04_EEG,001,
,,ทองดี,face2_w.png,m,j,0.5672126999706961,No,Pilot04_EEG,001,
,,สายใจ,face8_m.png,f,k,0.9511135999928229,No,Pilot04_EEG,001,
,,สมปอง,face4_w.png,m,j,1.1501380000263453,No,Pilot04_EEG,001,
,,บุญชู,face1_w.png,m,j,2.6846389999845996,No,Pilot04_EEG,001,
,,สมหญิง,face7_w.png,f,j,0.6173059999709949,No,Pilot04_EEG,001,
,,สมปอง,face6_m.png,m,k,0.6006408999674022,No,Pilot04_EEG,001,
,,สมหญิง,face10_w.png,f,j,0.9003007999854162,No,Pilot04_EEG,001,
,,ประทีป,face6_m.png,m,k,0.9004345999564976,No,Pilot04_EEG,001,
,,ทองดี,face3_m.png,m,k,1.1167588999960572,No,Pilot04_EEG,001,
,,สมชาย,face10_m.png,m,k,0.6668633999652229,No,Pilot04_EEG,001,
,,แก้วตา,face5_w.png,f,j,1.0670373999746516,No,Pilot04_EEG,001,
,,ประเสริฐ,face6_w.png,m,j,0.6002909999806434,No,Pilot04_EEG,001,
,,มานะ,face6_m.png,m,k,0.7006327999988571,No,Pilot04_EEG,001,
,,สมปอง,face1_m.png,m,k,0.5172598999924958,No,Pilot04_EEG,001,
,,ชูศักดิ์,face9_m.png,m,k,0.5169718000106514,No,Pilot04_EEG,001,
,,ทองดี,face6_w.png,m,j,0.6340455000172369,No,Pilot04_EEG,001,
,,พอใจ,face6_w.png,f,j,0.5842670999700204,No,Pilot04_EEG,001,
,,สมหมาย,face9_m.png,m,k,0.5836960999877192,No,Pilot04_EEG,001,
,,สมชาย,face2_m.png,m,j,1.0009186000097543,No,Pilot04_EEG,001,
,,สายใจ,face3_m.png,f,j,0.650493599998299,No,Pilot04_EEG,001,
,,ประเสริฐ,face7_m.png,m,k,0.9338469000067562,No,Pilot04_EEG,001,
,,ทับทิม,face1_m.png,f,k,0.7837436000118032,No,Pilot04_EEG,001,
,,ทองดี,face8_m.png,m,j,0.6336730000330135,No,Pilot04_EEG,001,
,,ดวงแก้ว,face8_m.png,f,k,0.8169572000042535,No,Pilot04_EEG,001,
,,สมชาย,face4_w.png,m,j,1.0170074999914505,No,Pilot04_EEG,001,
,,ชูศักดิ์,face8_w.png,m,j,1.6834433000185527,No,Pilot04_EEG,001,
,,วันเพ็ญ,face9_w.png,f,j,0.7505294000147842,No,Pilot04_EEG,001,
,,สายใจ,face1_m.png,f,k,1.6168448999524117,No,Pilot04_EEG,001,
,,บุญชู,face5_w.png,m,j,1.1170568999950774,No,Pilot04_EEG,001,
,,ชูศักดิ์,face2_w.png,m,j,1.3336101000313647,No,Pilot04_EEG,001,
,,ชูศักดิ์,face4_m.png,m,k,1.7667825000244193,No,Pilot04_EEG,001,
,,ประทีป,face1_w.png,m,j,0.8502859000000171,No,Pilot04_EEG,001,
,,ทองดี,face5_w.png,m,j,2.533531299966853,No,Pilot04_EEG,001,
,,สมหมาย,face7_m.png,m,k,1.8003124000388198,No,Pilot04_EEG,001,
,,ดวงแก้ว,face6_w.png,f,j,1.8006420999881811,No,Pilot04_EEG,001,
,,แก้วตา,face4_m.png,f,k,0.8001464999979362,No,Pilot04_EEG,001,
,,สมปอง,face6_w.png,m,j,0.834221700031776,No,Pilot04_EEG,001,
,,แก้วตา,face8_m.png,f,None,None,Yes,Pilot04_EEG,001,
,,แก้วตา,face8_m.png,f,k,None,Yes,Pilot04_EEG,001,
,,ทับทิม,face6_m.png,f,k,2.183989599987399,No,Pilot04_EEG,001,
,,ประทีป,face9_m.png,m,k,0.600327100022696,No,Pilot04_EEG,001,
,,มั่นคง,face3_w.png,m,j,1.1002710000029765,No,Pilot04_EEG,001,
,,สมปอง,face10_w.png,m,j,1.3170051999622956,No,Pilot04_EEG,001,
,,ฟ้าใส,face9_w.png,f,j,0.7501851000124589,No,Pilot04_EEG,001,
,,สมหมาย,face5_w.png,m,j,1.1336449999944307,No,Pilot04_EEG,001,
,,สมชาย,face6_m.png,m,k,1.067084899987094,No,Pilot04_EEG,001,
,,สายใจ,face5_m.png,f,None,None,Yes,Pilot04_EEG,001,
,,สายใจ,face5_m.png,f,k,None,Yes,Pilot04_EEG,001,
,,บุญชู,face6_m.png,m,k,0.6169902000110596,No,Pilot04_EEG,001,
,,ประทีป,face4_w.png,m,j,0.7334616000298411,No,Pilot04_EEG,001,
,,ประทีป,face2_w.png,m,j,0.6673056000145152,No,Pilot04_EEG,001,
,,พิกุล,face1_m.png,f,k,0.8174847000045702,No,Pilot04_EEG,001,
,,ประเสริฐ,face3_m.png,m,k,0.7501437999890186,No,Pilot04_EEG,001,
,,บุญชู,face7_m.png,m,k,0.6005300999968313,No,Pilot04_EEG,001,
,,บุญชู,face3_m.png,m,k,0.8502104000071995,No,Pilot04_EEG,001,
,,พอใจ,face1_m.png,f,k,0.5672509999712929,No,Pilot04_EEG,001,
,,วันเพ็ญ,face6_m.png,f,k,0.6336162000079639,No,Pilot04_EEG,001,
,,พอใจ,face4_w.png,f,j,0.6167001000139862,No,Pilot04_EEG,001,
,,ดวงแก้ว,face1_m.png,f,k,0.6334803000208922,No,Pilot04_EEG,001,
,,ชูศักดิ์,face6_w.png,m,j,0.5336306999670342,No,Pilot04_EEG,001,
,,ใบเฟิร์น,face5_w.png,f,j,0.6836926999967545,No,Pilot04_EEG,001,
,,ชูศักดิ์,face10_w.png,m,j,0.5670034000067972,No,Pilot04_EEG,001,
,,ทองดี,face5_m.png,m,k,0.7838239999837242,No,Pilot04_EEG,001,
,,ฟ้าใส,face10_w.png,f,j,1.5175291000050493,No,Pilot04_EEG,001,
,,แก้วตา,face6_w.png,f,j,0.6836517000338063,No,Pilot04_EEG,001,
,,มานะ,face7_w.png,m,j,0.9336770999943838,No,Pilot04_EEG,001,
,,บุญชู,face10_w.png,m,j,0.7336623999872245,No,Pilot04_EEG,001,
,,สมหมาย,face2_w.png,m,j,0.6345530999824405,No,Pilot04_EEG,001,
,,สมหมาย,face5_m.png,m,k,0.8005558000295423,No,Pilot04_EEG,001,
,,ทับทิม,face3_w.png,f,j,0.9170212000026368,No,Pilot04_EEG,001,
,,ใบเฟิร์น,face7_m.png,f,k,0.7670100000104867,No,Pilot04_EEG,001,
,,มานะ,face4_w.png,m,j,1.7168135000392795,No,Pilot04_EEG,001,
,,แก้วตา,face8_w.png,f,j,0.7170209000469185,No,Pilot04_EEG,001,
,,ประเสริฐ,face2_w.png,m,j,1.083978200040292,No,Pilot04_EEG,001,
,,สมชาย,face7_w.png,m,j,0.6172129000187851,No,Pilot04_EEG,001,
,,มานะ,face10_w.png,m,j,0.5167227000347339,No,Pilot04_EEG,001,
,,ประเสริฐ,face8_m.png,m,k,0.9504725000006147,No,Pilot04_EEG,001,
,,ประทีป,face5_w.png,m,j,0.6170153999701142,No,Pilot04_EEG,001,
,,สมหญิง,face8_m.png,f,k,0.9504996000323445,No,Pilot04_EEG,001,
,,มานะ,face9_w.png,m,j,0.7503977000014856,No,Pilot04_EEG,001,
,,ดวงแก้ว,face9_m.png,f,k,0.8834191000205465,No,Pilot04_EEG,001,
,,ทับทิม,face3_m.png,f,k,1.0835085999569856,No,Pilot04_EEG,001,
,,ประเสริฐ,face10_m.png,m,k,0.7669491000124253,No,Pilot04_EEG,001,
,,แก้วตา,face9_w.png,f,j,0.7169085000059567,No,Pilot04_EEG,001,
,,ดวงแก้ว,face2_w.png,f,j,1.333693599968683,No,Pilot04_EEG,001,
,,มานะ,face5_m.png,m,k,1.7003500999999233,No,Pilot04_EEG,001,
,,มั่นคง,face1_w.png,m,j,1.2336679000291042,No,Pilot04_EEG,001,
,,พอใจ,face8_w.png,f,j,0.8175787999643944,No,Pilot04_EEG,001,
,,สมชาย,face8_w.png,m,j,0.7001940000336617,No,Pilot04_EEG,001,
,,ประทีป,face2_m.png,m,k,1.4004029000061564,No,Pilot04_EEG,001,
,,ฟ้าใส,face1_m.png,f,k,0.7504678000113927,No,Pilot04_EEG,001,
,,แก้วตา,face5_m.png,f,k,1.000353700015694,No,Pilot04_EEG,001,
,,มานะ,face10_m.png,m,j,0.8835899999830872,No,Pilot04_EEG,001,
,,ดวงแก้ว,face3_w.png,f,j,0.6169802999938838,No,Pilot04_EEG,001,
,,ฟ้าใส,face10_m.png,f,k,0.5834903999930248,No,Pilot04_EEG,001,
,,สมหมาย,face10_w.png,m,j,0.5501246000058018,No,Pilot04_EEG,001,
,,ทับทิม,face5_w.png,f,j,0.5834235000074841,No,Pilot04_EEG,001,
,,สายใจ,face6_w.png,f,j,0.6172375000314787,No,Pilot04_EEG,001,
,,มั่นคง,face2_m.png,m,k,0.4670351999811828,No,Pilot04_EEG,001,
,,สมหมาย,face10_m.png,m,k,0.46712569997180253,No,Pilot04_EEG,001,
,,สมชาย,face7_m.png,m,k,0.5502503999741748,No,Pilot04_EEG,001,
,,สมหญิง,face2_w.png,f,j,0.7506648999988101,No,Pilot04_EEG,001,
,,สมปอง,face2_m.png,m,k,1.550893499981612,No,Pilot04_EEG,001,
,,ทองดี,face10_m.png,m,k,0.5670918000396341,No,Pilot04_EEG,001,
,,ชูศักดิ์,face7_m.png,m,k,0.6002217000350356,No,Pilot04_EEG,001,
,,มานะ,face6_w.png,m,j,0.6170095999841578,No,Pilot04_EEG,001,
,,มานะ,face2_w.png,m,j,0.8840106999850832,No,Pilot04_EEG,001,
,,ฟ้าใส,face9_m.png,f,k,0.5840599000221118,No,Pilot04_EEG,001,
,,แก้วตา,face2_m.png,f,k,1.033988299954217,No,Pilot04_EEG,001,
,,ประทีป,face7_m.png,m,k,0.5169225999852642,No,Pilot04_EEG,001,
,,ดวงแก้ว,face7_w.png,f,j,0.7004176999907941,No,Pilot04_EEG,001,
,,บุญชู,face7_w.png,m,j,0.7005191000062041,No,Pilot04_EEG,001,
,,วันเพ็ญ,face7_w.png,f,j,0.5503173999604769,No,Pilot04_EEG,001,
,,พอใจ,face10_w.png,f,j,0.7168383999960497,No,Pilot04_EEG,001,
,,สายใจ,face5_w.png,f,j,0.8836395000107586,No,Pilot04_EEG,001,
,,สมหมาย,face8_m.png,m,k,0.4669955999706872,No,Pilot04_EEG,001,
,,ชูศักดิ์,face2_m.png,m,k,0.5513739999732934,No,Pilot04_EEG,001,
,,สมชาย,face3_m.png,m,k,0.8343098000041209,No,Pilot04_EEG,001,
,,วันเพ็ญ,face7_m.png,f,k,0.5171113999676891,No,Pilot04_EEG,001,
,,ดวงแก้ว,face2_m.png,f,k,0.48364290001336485,No,Pilot04_EEG,001,
,,ประทีป,face10_w.png,m,j,0.6501753000193276,No,Pilot04_EEG,001,
,,ฟ้าใส,face4_w.png,f,j,0.5169752999790944,No,Pilot04_EEG,001,
,,ฟ้าใส,face5_w.png,f,j,0.5003447000053711,No,Pilot04_EEG,001,
,,ใบเฟิร์น,face9_w.png,f,j,0.534049200010486,No,Pilot04_EEG,001,
,,ฟ้าใส,face3_w.png,f,j,1.317287000012584,No,Pilot04_EEG,001,
,,สายใจ,face4_m.png,f,k,0.5500349999638274,No,Pilot04_EEG,001,
,,พอใจ,face6_m.png,f,k,0.7835238999687135,No,Pilot04_EEG,001,
,,สมปอง,face9_w.png,m,j,0.6836688999901526,No,Pilot04_EEG,001,
,,สมหญิง,face3_w.png,f,j,0.5507933999761008,No,Pilot04_EEG,001,
,,บุญชู,face10_m.png,m,k,0.5004472999717109,No,Pilot04_EEG,001,
,,ชูศักดิ์,face6_m.png,m,k,0.5002135999966413,No,Pilot04_EEG,001,
,,มานะ,face1_w.png,m,j,0.5837748000049032,No,Pilot04_EEG,001,
,,ทับทิม,face10_w.png,f,j,0.7336271000094712,No,Pilot04_EEG,001,
,,มานะ,face1_m.png,m,k,0.5334524000063539,No,Pilot04_EEG,001,
,,ประเสริฐ,face5_m.png,m,k,0.5005520000122488,No,Pilot04_EEG,001,
,,พิกุล,face9_m.png,f,k,0.5168368000304326,No,Pilot04_EEG,001,
,,ใบเฟิร์น,face8_m.png,f,k,0.5668833000236191,No,Pilot04_EEG,001,
,,สมหมาย,face6_m.png,m,k,0.566863399988506,No,Pilot04_EEG,001,
,,สมหมาย,face2_m.png,m,k,0.5508804999990389,No,Pilot04_EEG,001,
,,ชูศักดิ์,face3_m.png,m,k,0.550174199976027,No,Pilot04_EEG,001,
,,ประเสริฐ,face8_w.png,m,j,0.8500372999696992,No,Pilot04_EEG,001,
,,ทองดี,face2_m.png,m,k,0.5503342000301927,No,Pilot04_EEG,001,
,,ประเสริฐ,face10_w.png,m,j,0.6833533000317402,No,Pilot04_EEG,001,
,,พิกุล,face8_w.png,f,k,0.6670144000090659,No,Pilot04_EEG,001,
,,ประเสริฐ,face7_w.png,m,j,0.7004513000138104,No,Pilot04_EEG,001,
,,พอใจ,face10_m.png,f,k,0.5005602999590337,No,Pilot04_EEG,001,
,,มานะ,face7_m.png,m,k,0.5670212999684736,No,Pilot04_EEG,001,
,,แก้วตา,face3_m.png,f,k,0.500414899957832,No,Pilot04_EEG,001,
,,มั่นคง,face8_w.png,m,j,0.6835134999710135,No,Pilot04_EEG,001,
,,ทับทิม,face10_m.png,f,k,0.6501544000348076,No,Pilot04_EEG,001,
,,วันเพ็ญ,face1_m.png,f,k,2.0009751000325195,No,Pilot04_EEG,001,
,,สายใจ,face10_m.png,f,k,0.6002348000183702,No,Pilot04_EEG,001,
,,บุญชู,face5_m.png,m,k,0.6169243999756873,No,Pilot04_EEG,001,
,,ประทีป,face3_w.png,m,j,0.6833707999903709,No,Pilot04_EEG,001,
,,บุญชู,face4_m.png,m,k,0.8670893000089563,No,Pilot04_EEG,001,
,,พอใจ,face7_m.png,f,k,0.866969299968332,No,Pilot04_EEG,001,
,,วันเพ็ญ,face9_m.png,f,k,0.7001941000344232,No,Pilot04_EEG,001,
,,ทองดี,face7_w.png,m,j,0.5671300000394695,No,Pilot04_EEG,001,
,,ทับทิม,face8_m.png,f,k,0.6005377999972552,No,Pilot04_EEG,001,
,,บุญชู,face8_w.png,m,j,0.6676834999816492,No,Pilot04_EEG,001,
,,แก้วตา,face9_m.png,f,k,0.6337311000097543,No,Pilot04_EEG,001,
,,ทองดี,face9_m.png,m,k,0.5668120000045747,No,Pilot04_EEG,001,
,,มั่นคง,face7_w.png,m,j,0.4501649000449106,No,Pilot04_EEG,001,
,,วันเพ็ญ,face8_w.png,f,j,0.4667001999914646,No,Pilot04_EEG,001,
,,มั่นคง,face5_m.png,m,k,0.4835878000012599,No,Pilot04_EEG,001,
,,ทองดี,face3_w.png,m,j,0.700139400025364,No,Pilot04_EEG,001,
,,พิกุล,face2_w.png,f,j,0.600407499994617,No,Pilot04_EEG,001,
,,วันเพ็ญ,face10_w.png,f,j,0.6503269000095315,No,Pilot04_EEG,001,
,,สมชาย,face4_m.png,m,k,0.5670019999961369,No,Pilot04_EEG,001,
,,สมปอง,face7_w.png,m,j,1.5003476000274532,No,Pilot04_EEG,001,
,,ใบเฟิร์น,face1_w.png,f,j,0.8343613999895751,No,Pilot04_EEG,001,
,,สมปอง,face5_w.png,m,j,0.6169262999901548,No,Pilot04_EEG,001,
,,สายใจ,face6_m.png,f,k,0.6335390000022016,No,Pilot04_EEG,001,
,,วันเพ็ญ,face4_w.png,f,j,0.7167617999948561,No,Pilot04_EEG,001,
,,วันเพ็ญ,face8_m.png,f,k,0.633762100012973,No,Pilot04_EEG,001,
,,สายใจ,face3_w.png,f,j,0.550179100013338,No,Pilot04_EEG,001,
,,ฟ้าใส,face8_w.png,f,j,0.767733299988322,No,Pilot04_EEG,001,
,,วันเพ็ญ,face2_w.png,f,j,1.8837587000452913,No,Pilot04_EEG,001,
,,สมหมาย,face1_w.png,m,j,0.5336786000407301,No,Pilot04_EEG,001,
,,พิกุล,face4_m.png,f,k,0.5503115999745205,No,Pilot04_EEG,001,
,,บุญชู,face2_w.png,m,j,0.7836083999718539,No,Pilot04_EEG,001,
,,พอใจ,face9_w.png,f,j,0.46674699999857694,No,Pilot04_EEG,001,
,,สมหญิง,face6_w.png,f,j,0.6170290000154637,No,Pilot04_EEG,001,
,,พอใจ,face3_w.png,f,j,0.5167712999973446,No,Pilot04_EEG,001,
,,ฟ้าใส,face8_m.png,f,k,0.5338832000270486,No,Pilot04_EEG,001,
,,ทับทิม,face1_w.png,f,j,0.8335846000118181,No,Pilot04_EEG,001,
,,พอใจ,face3_m.png,f,k,0.8668862000340596,No,Pilot04_EEG,001,
,,สายใจ,face10_w.png,f,k,1.3335556000238284,No,Pilot04_EEG,001,
,,ใบเฟิร์น,face3_w.png,f,j,0.6835986999794841,No,Pilot04_EEG,001,
,,ใบเฟิร์น,face1_m.png,f,k,0.5166869999957271,No,Pilot04_EEG,001,
,,บุญชู,face9_w.png,m,j,0.8839521000045352,No,Pilot04_EEG,001,
,,สายใจ,face1_w.png,f,j,1.250433899986092,No,Pilot04_EEG,001,
,,วันเพ็ญ,face3_w.png,f,j,0.5334628999698907,No,Pilot04_EEG,001,
,,มานะ,face8_m.png,m,k,0.518492300005164,No,Pilot04_EEG,001,
,,มั่นคง,face10_m.png,m,k,0.48377089999848977,No,Pilot04_EEG,001,
,,ใบเฟิร์น,face4_w.png,f,j,0.5834981999942102,No,Pilot04_EEG,001,
,,มั่นคง,face1_m.png,m,k,1.1001963999588042,No,Pilot04_EEG,001,
,,มานะ,face3_m.png,m,k,0.6168869000393897,No,Pilot04_EEG,001,
,,พอใจ,face8_m.png,f,k,0.5343272000318393,No,Pilot04_EEG,001,
,,ทับทิม,face2_w.png,f,j,0.6169847999699414,No,Pilot04_EEG,001,
,,สมชาย,face2_w.png,m,j,0.7009365000412799,No,Pilot04_EEG,001,
,,ใบเฟิร์น,face5_m.png,f,k,0.6507563999621198,No,Pilot04_EEG,001,
,,สมหมาย,face6_w.png,m,j,0.8335665999911726,No,Pilot04_EEG,001,
,,ฟ้าใส,face4_m.png,f,k,0.516782000020612,No,Pilot04_EEG,001,
,,ประทีป,face10_m.png,m,k,1.0668327000457793,No,Pilot04_EEG,001,
,,ชูศักดิ์,face9_w.png,m,j,0.6171148999710567,No,Pilot04_EEG,001,
,,ฟ้าใส,face6_w.png,f,k,0.9007144999923185,No,Pilot04_EEG,001,
,,ประเสริฐ,face9_w.png,m,j,0.7344087000237778,No,Pilot04_EEG,001,
,,พิกุล,face9_w.png,f,j,0.583639599964954,No,Pilot04_EEG,001,
,,พิกุล,face3_m.png,f,k,0.6339312000200152,No,Pilot04_EEG,001,
,,สมหมาย,face9_w.png,m,j,0.567007299978286,No,Pilot04_EEG,001,
,,ฟ้าใส,face7_m.png,f,k,0.517057599965483,No,Pilot04_EEG,001,
,,สมปอง,face3_w.png,m,j,0.6188574000261724,No,Pilot04_EEG,001,
,,สมหมาย,face4_m.png,m,k,0.6672064999584109,No,Pilot04_EEG,001,
,,สมชาย,face9_w.png,m,j,1.7335298000252806,No,Pilot04_EEG,001,
,,สมหญิง,face4_w.png,f,j,0.6680071000009775,No,Pilot04_EEG,001,
,,ใบเฟิร์น,face2_w.png,f,j,0.49909989995649084,No,Pilot04_EEG,001,
,,ประเสริฐ,face6_m.png,m,k,0.7002952999901026,No,Pilot04_EEG,001,
,,สมชาย,face6_w.png,m,j,0.6004827999859117,No,Pilot04_EEG,001,
,,ประเสริฐ,face1_w.png,m,j,1.3009949999977835,No,Pilot04_EEG,001,
,,ดวงแก้ว,face5_w.png,f,j,0.9503399999812245,No,Pilot04_EEG,001,
,,ฟ้าใส,face7_w.png,f,j,1.4670670999912545,No,Pilot04_EEG,001,
,,ทองดี,face6_m.png,m,k,0.7504731999943033,No,Pilot04_EEG,001,
,,สายใจ,face7_m.png,f,k,2.167167499952484,No,Pilot04_EEG,001,
,,แก้วตา,face4_w.png,f,j,0.6168374000117183,No,Pilot04_EEG,001,
,,ทับทิม,face7_w.png,f,j,0.7669605999835767,No,Pilot04_EEG,001,
,,แก้วตา,face1_m.png,f,k,0.633613099984359,No,Pilot04_EEG,001,
,,ประทีป,face8_w.png,m,j,1.4001751999603584,No,Pilot04_EEG,001,
,,บุญชู,face4_w.png,m,j,2.0503612000029534,No,Pilot04_EEG,001,
,,แก้วตา,face3_w.png,f,j,0.5334827999467961,No,Pilot04_EEG,001,
,,สมปอง,face4_m.png,m,k,0.5837126999977045,No,Pilot04_EEG,001,
,,ชูศักดิ์,face5_w.png,m,j,0.8669802999938838,No,Pilot04_EEG,001,
,,แก้วตา,face6_m.png,f,k,0.7335594000178389,No,Pilot04_EEG,001,
,,มั่นคง,face8_m.png,m,k,0.700286099978257,No,Pilot04_EEG,001,
,,พอใจ,face2_m.png,f,k,0.6838739999802783,No,Pilot04_EEG,001,
,,ชูศักดิ์,face8_m.png,m,k,0.43392330000642687,No,Pilot04_EEG,001,
,,สายใจ,face8_w.png,f,j,0.566735600004904,No,Pilot04_EEG,001,
,,สมหมาย,face8_w.png,m,j,0.533677700033877,No,Pilot04_EEG,001,
,,พิกุล,face4_w.png,f,j,0.6501096999854781,No,Pilot04_EEG,001,
,,สมหญิง,face9_m.png,f,j,0.6334938000072725,No,Pilot04_EEG,001,
,,ดวงแก้ว,face9_w.png,f,j,0.5338088999851607,No,Pilot04_EEG,001,
,,ชูศักดิ์,face10_m.png,m,k,0.5669705999898724,No,Pilot04_EEG,001,
,,วันเพ็ญ,face4_m.png,f,k,0.567020800022874,No,Pilot04_EEG,001,
