thisRow.t,notes,Name,Face,NameGender,ResponseKey,RT,Timeout,participant,session,
,,พอใจ,face1_m.png,f,None,None,Yes,Pilot03,002,
,,สมหมาย,face4_m.png,m,j,0.7169899000145961,No,Pilot03,002,
,,สมปอง,face10_w.png,m,j,0.1668035000038799,No,Pilot03,002,
,,ทับทิม,face3_w.png,f,k,0.08421329999691807,No,Pilot03,002,
,,สมหมาย,face9_m.png,m,j,0.10098680001101457,No,Pilot03,002,
,,สมชาย,face7_m.png,m,j,0.15106469998136163,No,Pilot03,002,
,,ดวงแก้ว,face8_w.png,f,k,0.11709849999169819,No,Pilot03,002,
,,วันเพ็ญ,face4_w.png,f,k,None,Yes,Pilot03,002,
,,สายใจ,face9_m.png,f,k,0.1837525999872014,No,Pilot03,002,
,,มานะ,face1_m.png,m,j,0.08384150001802482,No,Pilot03,002,
,,สมปอง,face9_w.png,m,j,0.06678690001717769,No,Pilot03,002,
,,พิกุล,face7_m.png,f,k,0.15040260000387207,No,Pilot03,002,
,,แก้วตา,face9_m.png,f,k,None,Yes,Pilot03,002,
,,ฟ้าใส,face5_m.png,f,k,0.13357840001117438,No,Pilot03,002,
,,บุญชู,face3_w.png,m,j,0.08373220000066794,No,Pilot03,002,
,,วันเพ็ญ,face5_m.png,f,k,0.10021669999696314,No,Pilot03,002,
,,สมหญิง,face8_w.png,f,k,0.13424680000753142,No,Pilot03,002,
,,แก้วตา,face3_w.png,f,k,0.3174775000079535,No,Pilot03,002,
,,ประเสริฐ,face3_w.png,m,j,0.1670573000155855,No,Pilot03,002,
,,พิกุล,face8_w.png,f,k,0.2668930000218097,No,Pilot03,002,
,,วันเพ็ญ,face6_m.png,f,k,0.0841260000015609,No,Pilot03,002,
,,ดวงแก้ว,face6_m.png,f,k,0.200259700010065,No,Pilot03,002,
,,มั่นคง,face3_w.png,m,j,0.05019190002349205,No,Pilot03,002,
,,สมหญิง,face9_m.png,f,k,0.217330999992555,No,Pilot03,002,
,,พอใจ,face9_m.png,f,k,1.20046310001635,No,Pilot03,002,
,,สายใจ,face4_m.png,f,k,0.2170983999967575,No,Pilot03,002,
,,ฟ้าใส,face4_w.png,f,k,0.3345008000032976,No,Pilot03,002,
,,ประทีป,face6_w.png,m,j,0.33370459999423474,No,Pilot03,002,
,,ประเสริฐ,face5_w.png,m,j,0.5502114999981131,No,Pilot03,002,
,,ฟ้าใส,face1_m.png,f,k,0.18432539998320863,No,Pilot03,002,
,,วันเพ็ญ,face3_m.png,f,k,0.06719619999057613,No,Pilot03,002,
,,ใบเฟิร์น,face10_w.png,f,k,0.6500851000018883,No,Pilot03,002,
,,ดวงแก้ว,face5_w.png,f,k,0.20030759999644943,No,Pilot03,002,
,,ฟ้าใส,face2_m.png,f,k,0.35112710000248626,No,Pilot03,002,
,,พอใจ,face7_w.png,f,k,0.16679889999795705,No,Pilot03,002,
,,ชูศักดิ์,face2_w.png,m,j,0.16722659999504685,No,Pilot03,002,
,,พิกุล,face3_m.png,f,k,0.18361440001172014,No,Pilot03,002,
,,พิกุล,face7_w.png,f,k,0.3835591000097338,No,Pilot03,002,
,,ทองดี,face3_w.png,m,j,0.11695769999641925,No,Pilot03,002,
,,ทับทิม,face1_m.png,f,k,0.15034209997975267,No,Pilot03,002,
,,บุญชู,face7_w.png,m,j,0.483735899993917,No,Pilot03,002,
,,สมปอง,face6_m.png,m,j,0.11708269998780452,No,Pilot03,002,
,,ใบเฟิร์น,face7_w.png,f,k,0.1668053999892436,No,Pilot03,002,
,,มานะ,face5_w.png,m,j,0.5335352000256535,No,Pilot03,002,
,,มานะ,face6_m.png,m,j,None,Yes,Pilot03,002,
,,มานะ,face6_w.png,m,j,None,Yes,Pilot03,002,
,,สมปอง,face5_m.png,m,j,0.11713330002385192,No,Pilot03,002,
,,ใบเฟิร์น,face6_m.png,f,k,0.1169299999892246,No,Pilot03,002,
,,สมหมาย,face3_w.png,m,j,0.16689670001505874,No,Pilot03,002,
,,บุญชู,face10_w.png,m,j,0.45036899999831803,No,Pilot03,002,
,,สมชาย,face6_w.png,m,j,0.2842811000009533,No,Pilot03,002,
,,ประเสริฐ,face7_m.png,m,j,0.05032410001149401,No,Pilot03,002,
,,ฟ้าใส,face7_w.png,f,k,0.15095390001079068,No,Pilot03,002,
,,สมหมาย,face1_w.png,m,j,0.16685760000837035,No,Pilot03,002,
,,บุญชู,face3_m.png,m,j,0.16721479999250732,No,Pilot03,002,
,,ประทีป,face9_w.png,m,j,0.4002938999910839,No,Pilot03,002,
,,สายใจ,face5_m.png,f,k,0.3010517999937292,No,Pilot03,002,
,,สมปอง,face7_w.png,m,j,0.08384400000795722,No,Pilot03,002,
,,ประเสริฐ,face7_w.png,m,j,0.1336551000131294,No,Pilot03,002,
,,ทับทิม,face6_m.png,f,k,0.26709419998223893,No,Pilot03,002,
,,สมปอง,face4_m.png,m,j,0.30020549998153,No,Pilot03,002,
,,ประทีป,face8_w.png,m,j,1.3006002999900375,No,Pilot03,002,
,,สมชาย,face9_w.png,m,j,0.3167910000192933,No,Pilot03,002,
,,สายใจ,face3_w.png,f,k,0.11677240001154132,No,Pilot03,002,
,,ทับทิม,face1_w.png,f,k,0.4841442000179086,No,Pilot03,002,
,,วันเพ็ญ,face2_m.png,f,k,0.15027220000047237,No,Pilot03,002,
,,ทองดี,face6_w.png,m,j,0.35040870000375435,No,Pilot03,002,
,,สมหมาย,face5_m.png,m,j,0.11711769999237731,No,Pilot03,002,
,,ประเสริฐ,face2_w.png,m,j,0.2002308999944944,No,Pilot03,002,
,,ดวงแก้ว,face7_m.png,f,k,0.2671177000156604,No,Pilot03,002,
,,สายใจ,face10_m.png,f,k,0.4336685000162106,No,Pilot03,002,
,,ชูศักดิ์,face8_m.png,m,j,0.05012250001891516,No,Pilot03,002,
,,สมชาย,face3_w.png,m,j,0.5335925999970641,No,Pilot03,002,
,,พิกุล,face3_w.png,f,k,0.1833782000176143,No,Pilot03,002,
,,สมชาย,face10_w.png,m,j,0.28416810001363046,No,Pilot03,002,
,,แก้วตา,face10_w.png,f,k,0.5836519000004046,No,Pilot03,002,
,,สายใจ,face5_w.png,f,k,0.3339114999980666,No,Pilot03,002,
,,ประเสริฐ,face8_m.png,m,j,0.1505351000232622,No,Pilot03,002,
,,สมปอง,face3_w.png,m,j,2.1839511999860406,No,Pilot03,002,
,,ทับทิม,face2_m.png,f,k,0.10043489999952726,No,Pilot03,002,
,,สมหมาย,face10_w.png,m,j,0.03336770000169054,No,Pilot03,002,
,,ชูศักดิ์,face4_m.png,m,j,0.48394639999605715,No,Pilot03,002,
,,สายใจ,face7_w.png,f,k,0.3660395999904722,No,Pilot03,002,
,,บุญชู,face4_m.png,m,j,0.21886979998089373,No,Pilot03,002,
,,พิกุล,face6_m.png,f,k,0.6836882999923546,No,Pilot03,002,
,,แก้วตา,face9_w.png,f,k,0.23346349998610094,No,Pilot03,002,
,,วันเพ็ญ,face7_w.png,f,k,0.21700720000080764,No,Pilot03,002,
,,พิกุล,face6_w.png,f,k,0.03350320001482032,No,Pilot03,002,
,,วันเพ็ญ,face9_m.png,f,k,0.016936699976213276,No,Pilot03,002,
,,ชูศักดิ์,face2_m.png,m,j,0.15069389998097904,No,Pilot03,002,
,,มั่นคง,face5_w.png,m,j,0.08395329999621026,No,Pilot03,002,
,,ทับทิม,face10_w.png,f,k,0.15014499999233522,No,Pilot03,002,
,,บุญชู,face2_w.png,m,j,0.6338548999920022,No,Pilot03,002,
,,ดวงแก้ว,face3_m.png,f,k,0.1338333000021521,No,Pilot03,002,
,,สมหมาย,face5_w.png,m,j,0.3170502000139095,No,Pilot03,002,
,,พอใจ,face8_w.png,f,k,0.7667813999869395,No,Pilot03,002,
,,มั่นคง,face4_w.png,m,j,0.2675814999965951,No,Pilot03,002,
,,ทองดี,face9_w.png,m,j,0.11698489999980666,No,Pilot03,002,
,,วันเพ็ญ,face8_w.png,f,k,0.1001162999891676,No,Pilot03,002,
,,ทับทิม,face2_w.png,f,j,0.13389379999716766,No,Pilot03,002,
,,บุญชู,face5_m.png,m,j,0.4508573999919463,No,Pilot03,002,
,,ชูศักดิ์,face10_w.png,m,j,0.05003969999961555,No,Pilot03,002,
,,วันเพ็ญ,face10_w.png,f,j,0.13455690001137555,No,Pilot03,002,
,,ใบเฟิร์น,face9_m.png,f,k,0.5504994999791961,No,Pilot03,002,
,,พอใจ,face2_m.png,f,k,0.083996000001207,No,Pilot03,002,
,,สมหมาย,face7_w.png,m,j,0.2336205999890808,No,Pilot03,002,
,,ประเสริฐ,face4_m.png,m,j,0.3666774000157602,No,Pilot03,002,
,,สมหญิง,face6_m.png,f,k,0.13358200000948273,No,Pilot03,002,
,,มั่นคง,face7_m.png,m,j,0.05032460001530126,No,Pilot03,002,
,,บุญชู,face4_w.png,m,j,0.10080200000084005,No,Pilot03,002,
,,สายใจ,face6_m.png,f,k,0.41698680000263266,No,Pilot03,002,
,,ใบเฟิร์น,face4_m.png,f,k,0.43347519999952056,No,Pilot03,002,
,,แก้วตา,face6_m.png,f,k,0.21671760000754148,No,Pilot03,002,
,,ดวงแก้ว,face4_w.png,f,k,0.15006660000653937,No,Pilot03,002,
,,ทับทิม,face9_w.png,f,k,0.38375740000628866,No,Pilot03,002,
,,แก้วตา,face6_w.png,f,k,0.05036419999669306,No,Pilot03,002,
,,แก้วตา,face1_m.png,f,k,0.00517519999993965,No,Pilot03,002,
,,แก้วตา,face1_w.png,f,k,None,Yes,Pilot03,002,
,,แก้วตา,face7_m.png,f,k,None,Yes,Pilot03,002,
,,แก้วตา,face4_m.png,f,k,0.2668231000134256,No,Pilot03,002,
,,พอใจ,face7_m.png,f,k,0.05038369999965653,No,Pilot03,002,
,,พอใจ,face4_w.png,f,k,0.06701619998784736,No,Pilot03,002,
,,มั่นคง,face9_m.png,m,j,None,Yes,Pilot03,002,
,,ชูศักดิ์,face1_m.png,m,j,0.10012560000177473,No,Pilot03,002,
,,วันเพ็ญ,face9_w.png,f,k,0.1336738000100013,No,Pilot03,002,
,,สมหญิง,face5_w.png,f,k,0.2504427000239957,No,Pilot03,002,
,,ประทีป,face7_m.png,m,j,0.06778090001898818,No,Pilot03,002,
,,ทองดี,face7_m.png,m,j,0.25049969999236055,No,Pilot03,002,
,,ใบเฟิร์น,face4_w.png,f,j,None,Yes,Pilot03,002,
,,สมปอง,face8_m.png,m,k,None,Yes,Pilot03,002,
,,สายใจ,face2_w.png,f,k,1.6176127000071574,No,Pilot03,002,
,,สมปอง,face10_m.png,m,j,0.3171261000097729,No,Pilot03,002,
,,ฟ้าใส,face3_m.png,f,k,0.20043230001465417,No,Pilot03,002,
,,ฟ้าใส,face7_m.png,f,k,0.2510115999903064,No,Pilot03,002,
,,ทองดี,face2_w.png,m,j,0.0839022999862209,No,Pilot03,002,
,,สายใจ,face2_m.png,f,k,0.41717039997456595,No,Pilot03,002,
,,ใบเฟิร์น,face3_m.png,f,k,0.36687510000774637,No,Pilot03,002,
,,บุญชู,face5_w.png,m,j,0.6000869999988936,No,Pilot03,002,
,,พอใจ,face1_w.png,f,k,0.3169601999979932,No,Pilot03,002,
,,บุญชู,face10_m.png,m,j,0.1343027999973856,No,Pilot03,002,
,,สมหญิง,face10_w.png,f,k,0.06746170000405982,No,Pilot03,002,
,,บุญชู,face1_m.png,m,j,0.16678160001174547,No,Pilot03,002,
,,พอใจ,face6_w.png,f,k,0.41779599999426864,No,Pilot03,002,
,,สมหญิง,face2_w.png,f,k,0.20106610000948422,No,Pilot03,002,
,,สมชาย,face3_m.png,m,k,0.06671769998501986,No,Pilot03,002,
,,วันเพ็ญ,face4_m.png,f,k,0.13351980000152253,No,Pilot03,002,
,,ประเสริฐ,face2_m.png,m,j,0.18363980000140145,No,Pilot03,002,
,,พิกุล,face5_m.png,f,k,0.08391799998935312,No,Pilot03,002,
,,สมปอง,face2_m.png,m,j,0.36747959998319857,No,Pilot03,002,
,,สมชาย,face4_w.png,m,j,0.050110199983464554,No,Pilot03,002,
,,ดวงแก้ว,face2_w.png,f,k,0.15083359999698587,No,Pilot03,002,
,,ใบเฟิร์น,face3_w.png,f,k,0.01715379999950528,No,Pilot03,002,
,,ประเสริฐ,face6_m.png,m,j,None,Yes,Pilot03,002,
,,ดวงแก้ว,face4_m.png,f,k,0.10072009998839349,No,Pilot03,002,
,,ประเสริฐ,face6_w.png,m,j,0.40039100000285544,No,Pilot03,002,
,,ใบเฟิร์น,face5_m.png,f,k,0.33432639998500235,No,Pilot03,002,
,,พิกุล,face9_w.png,f,k,1.0335477000044193,No,Pilot03,002,
,,ทองดี,face1_m.png,m,j,0.5338389000098687,No,Pilot03,002,
,,ชูศักดิ์,face6_m.png,m,j,0.43223330000182614,No,Pilot03,002,
,,ชูศักดิ์,face7_m.png,m,j,0.1503499000100419,No,Pilot03,002,
,,สมปอง,face3_m.png,m,k,0.13363130000652745,No,Pilot03,002,
,,บุญชู,face8_m.png,m,j,0.36704089998966083,No,Pilot03,002,
,,มานะ,face3_w.png,m,j,0.3838732000149321,No,Pilot03,002,
,,ประทีป,face1_m.png,m,j,0.05046510000829585,No,Pilot03,002,
,,วันเพ็ญ,face8_m.png,f,k,0.06704999998328276,No,Pilot03,002,
,,พิกุล,face10_m.png,f,k,0.05037030001403764,No,Pilot03,002,
,,มานะ,face2_m.png,m,j,0.20060100001865067,No,Pilot03,002,
,,ชูศักดิ์,face9_m.png,m,j,0.11704769998323172,No,Pilot03,002,
,,สมชาย,face8_m.png,m,j,0.01689609998720698,No,Pilot03,002,
,,พอใจ,face9_w.png,f,k,0.16684029999305494,No,Pilot03,002,
,,ดวงแก้ว,face7_w.png,f,k,0.15036400000099093,No,Pilot03,002,
,,มั่นคง,face5_m.png,m,j,0.10061759999371134,No,Pilot03,002,
,,ใบเฟิร์น,face5_w.png,f,k,0.06751239998266101,No,Pilot03,002,
,,ประทีป,face1_w.png,m,j,0.08427959997789003,No,Pilot03,002,
,,แก้วตา,face5_m.png,f,j,0.11727049999171868,No,Pilot03,002,
,,พอใจ,face8_m.png,f,k,1.0503294999944046,No,Pilot03,002,
,,สมหมาย,face8_m.png,m,j,0.13372099999105558,No,Pilot03,002,
,,สมชาย,face4_m.png,m,j,0.166791399999056,No,Pilot03,002,
,,ใบเฟิร์น,face1_m.png,f,k,0.13361759998952039,No,Pilot03,002,
,,สมปอง,face4_w.png,m,j,0.20042340000509284,No,Pilot03,002,
,,ดวงแก้ว,face1_w.png,f,k,0.11661649998859502,No,Pilot03,002,
,,ชูศักดิ์,face4_w.png,m,j,0.1504160999902524,No,Pilot03,002,
,,สมหมาย,face2_m.png,m,j,0.4005378999863751,No,Pilot03,002,
,,ประเสริฐ,face5_m.png,m,j,0.10034420000738464,No,Pilot03,002,
,,สมปอง,face5_w.png,m,j,0.08343639998929575,No,Pilot03,002,
,,ใบเฟิร์น,face2_w.png,f,k,0.18372520001139492,No,Pilot03,002,
,,สายใจ,face10_w.png,f,k,0.2506491999956779,No,Pilot03,002,
,,มั่นคง,face8_m.png,m,j,None,Yes,Pilot03,002,
,,มั่นคง,face2_w.png,m,j,None,Yes,Pilot03,002,
,,มานะ,face7_m.png,m,j,0.033499599987408146,No,Pilot03,002,
,,ทับทิม,face7_m.png,f,k,None,Yes,Pilot03,002,
,,พิกุล,face9_m.png,f,k,0.016865999990841374,No,Pilot03,002,
,,ประเสริฐ,face10_m.png,m,j,0.034167900012107566,No,Pilot03,002,
,,ดวงแก้ว,face9_w.png,f,k,0.18335489998571575,No,Pilot03,002,
,,สมปอง,face1_m.png,m,j,0.06699759999173693,No,Pilot03,002,
,,วันเพ็ญ,face7_m.png,f,k,0.15032830002019182,No,Pilot03,002,
,,สมปอง,face8_w.png,m,j,0.16668070000014268,No,Pilot03,002,
,,สมชาย,face1_w.png,m,j,0.11763819999760017,No,Pilot03,002,
,,ชูศักดิ์,face5_w.png,m,j,0.05005570000503212,No,Pilot03,002,
,,สมหมาย,face9_w.png,m,j,0.10028409998631105,No,Pilot03,002,
,,มั่นคง,face10_m.png,m,j,0.06684680000762455,No,Pilot03,002,
,,ประเสริฐ,face9_w.png,m,j,0.08370499999728054,No,Pilot03,002,
,,วันเพ็ญ,face10_m.png,f,k,0.06694009999046102,No,Pilot03,002,
,,ดวงแก้ว,face8_m.png,f,k,0.03432599999359809,No,Pilot03,002,
,,สายใจ,face1_m.png,f,k,0.21750410000095144,No,Pilot03,002,
,,สมชาย,face2_m.png,m,j,0.16695610000169836,No,Pilot03,002,
,,วันเพ็ญ,face3_w.png,f,k,0.2335134000168182,No,Pilot03,002,
,,ประทีป,face2_w.png,m,j,0.03354099998250604,No,Pilot03,002,
,,บุญชู,face8_w.png,m,j,0.1000237999833189,No,Pilot03,002,
,,สายใจ,face3_m.png,f,j,None,Yes,Pilot03,002,
,,ทองดี,face7_w.png,m,j,0.45033190000685863,No,Pilot03,002,
,,ใบเฟิร์น,face8_m.png,f,k,0.13371640001423657,No,Pilot03,002,
,,ทองดี,face4_w.png,m,j,0.7000896999961697,No,Pilot03,002,
,,สายใจ,face1_w.png,f,k,0.30031260001123883,No,Pilot03,002,
,,ทับทิม,face6_w.png,f,k,0.03378659998998046,No,Pilot03,002,
,,ทับทิม,face8_w.png,f,k,0.06683759999577887,No,Pilot03,002,
,,สมหมาย,face1_m.png,m,j,0.28387230000225827,No,Pilot03,002,
,,พอใจ,face10_m.png,f,k,0.5172592000162695,No,Pilot03,002,
,,มั่นคง,face9_w.png,m,j,0.7505732999998145,No,Pilot03,002,
,,ทองดี,face5_w.png,m,j,1.000370900001144,No,Pilot03,002,
,,ดวงแก้ว,face1_m.png,f,k,0.10024630001862533,No,Pilot03,002,
,,ฟ้าใส,face3_w.png,f,k,0.15036549998330884,No,Pilot03,002,
,,ฟ้าใส,face6_w.png,f,k,0.16769930001464672,No,Pilot03,002,
,,สมชาย,face10_m.png,m,j,0.13401559999329038,No,Pilot03,002,
,,ดวงแก้ว,face3_w.png,f,k,0.30012130000977777,No,Pilot03,002,
,,พิกุล,face1_m.png,f,k,0.08369219998712651,No,Pilot03,002,
,,ชูศักดิ์,face3_w.png,m,j,0.16744780002045445,No,Pilot03,002,
,,สมหมาย,face3_m.png,m,j,0.10020230000372976,No,Pilot03,002,
,,ทับทิม,face4_m.png,f,k,0.2504440000047907,No,Pilot03,002,
,,ประเสริฐ,face8_w.png,m,j,0.16670500001055188,No,Pilot03,002,
,,สมหญิง,face1_m.png,f,k,0.08342169999377802,No,Pilot03,002,
,,พิกุล,face10_w.png,f,k,0.28359310000087135,No,Pilot03,002,
,,พอใจ,face6_m.png,f,k,0.5170714000123553,No,Pilot03,002,
,,สมหญิง,face10_m.png,f,k,0.21699459999217652,No,Pilot03,002,
,,ประเสริฐ,face10_w.png,m,j,0.28338830001302995,No,Pilot03,002,
,,สายใจ,face4_w.png,f,k,0.2503683000104502,No,Pilot03,002,
,,ใบเฟิร์น,face2_m.png,f,k,0.21759760001441464,No,Pilot03,002,
,,ประทีป,face4_m.png,m,j,0.10004220000701025,No,Pilot03,002,
,,สมชาย,face8_w.png,m,j,0.283775300020352,No,Pilot03,002,
,,สมหญิง,face4_w.png,f,j,0.035603500000433996,No,Pilot03,002,
,,สมชาย,face9_m.png,m,j,0.46674539998639375,No,Pilot03,002,
,,สายใจ,face8_w.png,f,k,0.18342070002108812,No,Pilot03,002,
,,แก้วตา,face5_w.png,f,k,0.0667781000083778,No,Pilot03,002,
,,แก้วตา,face10_m.png,f,k,0.2837714000197593,No,Pilot03,002,
,,สมปอง,face9_m.png,m,j,0.11704979999922216,No,Pilot03,002,
,,ใบเฟิร์น,face7_m.png,f,k,0.2005893999885302,No,Pilot03,002,
,,พิกุล,face4_m.png,f,k,0.11666860000696033,No,Pilot03,002,
,,มั่นคง,face8_w.png,m,j,0.2007856999989599,No,Pilot03,002,
,,สมปอง,face2_w.png,m,j,0.28383309999480844,No,Pilot03,002,
,,ชูศักดิ์,face10_m.png,m,j,0.003396300016902387,No,Pilot03,002,
,,มั่นคง,face7_w.png,m,j,0.05044019999331795,No,Pilot03,002,
,,สมชาย,face1_m.png,m,j,0.16694520000601187,No,Pilot03,002,
,,ทับทิม,face10_m.png,f,k,0.13365000000339933,No,Pilot03,002,
,,บุญชู,face7_m.png,m,j,0.1843028000148479,No,Pilot03,002,
,,ชูศักดิ์,face3_m.png,m,j,0.11705640002037399,No,Pilot03,002,
,,ทับทิม,face5_m.png,f,k,0.06701510000857525,No,Pilot03,002,
,,สมหมาย,face4_w.png,m,j,0.08345969999209046,No,Pilot03,002,
,,มานะ,face9_w.png,m,j,0.43374710000352934,No,Pilot03,002,
,,ชูศักดิ์,face5_m.png,m,j,0.38379059999715537,No,Pilot03,002,
,,ประทีป,face3_w.png,m,j,0.1834241999895312,No,Pilot03,002,
,,มานะ,face8_m.png,m,j,0.10048880000249483,No,Pilot03,002,
,,ทองดี,face8_m.png,m,j,0.2172881000151392,No,Pilot03,002,
,,ฟ้าใส,face10_w.png,f,k,0.1673529999970924,No,Pilot03,002,
,,แก้วตา,face8_m.png,f,k,0.06702270000823773,No,Pilot03,002,
,,ประทีป,face7_w.png,m,j,0.13379779999377206,No,Pilot03,002,
,,มั่นคง,face6_m.png,m,j,0.034126699989428744,No,Pilot03,002,
,,สมปอง,face7_m.png,m,j,0.11715840001124889,No,Pilot03,002,
,,พิกุล,face2_w.png,f,k,0.08389249999891035,No,Pilot03,002,
,,ประทีป,face5_m.png,m,k,None,Yes,Pilot03,002,
,,ทองดี,face1_w.png,m,j,0.3505182000226341,No,Pilot03,002,
,,ทับทิม,face8_m.png,f,k,0.06768929999088868,No,Pilot03,002,
,,ฟ้าใส,face9_m.png,f,k,0.11711030002334155,No,Pilot03,002,
,,สมหญิง,face2_m.png,f,k,0.16722209998988546,No,Pilot03,002,
,,สมหมาย,face10_m.png,m,j,0.45048979998682626,No,Pilot03,002,
,,มั่นคง,face1_m.png,m,j,0.41708520002430305,No,Pilot03,002,
,,ดวงแก้ว,face10_m.png,f,k,0.183718799991766,No,Pilot03,002,
,,มั่นคง,face1_w.png,m,j,0.3673392999917269,No,Pilot03,002,
,,ฟ้าใส,face6_m.png,f,k,0.03394180000759661,No,Pilot03,002,
,,มานะ,face7_w.png,m,j,0.08387120001134463,No,Pilot03,002,
,,แก้วตา,face3_m.png,f,j,0.2836935999803245,No,Pilot03,002,
,,ประเสริฐ,face1_w.png,m,j,0.6836603000119794,No,Pilot03,002,
,,ฟ้าใส,face10_m.png,f,k,None,Yes,Pilot03,002,
,,พอใจ,face10_w.png,f,k,0.11680620000697672,No,Pilot03,002,
,,สมหญิง,face3_m.png,f,k,0.033566400001291186,No,Pilot03,002,
,,สมหมาย,face2_w.png,m,j,0.28389699998660944,No,Pilot03,002,
,,สมหมาย,face6_m.png,m,j,None,Yes,Pilot03,002,
,,สายใจ,face8_m.png,f,k,0.15050519999931566,No,Pilot03,002,
,,แก้วตา,face4_w.png,f,k,0.05006500001763925,No,Pilot03,002,
,,ประเสริฐ,face9_m.png,m,j,0.05011499999091029,No,Pilot03,002,
,,ดวงแก้ว,face6_w.png,f,k,0.36694269999861717,No,Pilot03,002,
,,ทับทิม,face3_m.png,f,j,0.16728009999496862,No,Pilot03,002,
,,ทองดี,face9_m.png,m,j,0.40029689998482354,No,Pilot03,002,
,,ทองดี,face6_m.png,m,j,0.0033811999892350286,No,Pilot03,002,
,,มั่นคง,face4_m.png,m,j,0.03346370000508614,No,Pilot03,002,
,,ใบเฟิร์น,face8_w.png,f,k,None,Yes,Pilot03,002,
,,มานะ,face1_w.png,m,j,0.15053300000727177,No,Pilot03,002,
,,ดวงแก้ว,face2_m.png,f,k,0.2813402999890968,No,Pilot03,002,
,,บุญชู,face9_w.png,m,j,0.15016640000976622,No,Pilot03,002,
,,บุญชู,face1_w.png,m,j,0.16698119998909533,No,Pilot03,002,
