thisRow.t,notes,Name,Face,NameGender,ResponseKey,RT,Timeout,participant,session,
,,มานะ,face7_m.png,m,k,1.0189142000162974,No,Pilot03_EEG,003,
,,พอใจ,face8_m.png,f,k,0.583827199996449,No,Pilot03_EEG,003,
,,ประทีป,face5_m.png,m,k,0.5171095000114292,No,Pilot03_EEG,003,
,,มั่นคง,face5_m.png,m,k,0.5006016999832354,No,Pilot03_EEG,003,
,,สมหญิง,face5_w.png,f,j,0.66677820001496,No,Pilot03_EEG,003,
,,สมหมาย,face4_m.png,m,k,0.8836023000185378,No,Pilot03_EEG,003,
,,สมหมาย,face6_m.png,m,k,0.950847000000067,No,Pilot03_EEG,003,
,,วันเพ็ญ,face9_m.png,f,k,0.8835345999686979,No,Pilot03_EEG,003,
,,ประเสริฐ,face10_w.png,m,j,0.7671209999825805,No,Pilot03_EEG,003,
,,วันเพ็ญ,face4_w.png,f,j,0.6008708999725059,No,Pilot03_EEG,003,
,,สมชาย,face1_w.png,m,j,0.9673221000120975,No,Pilot03_EEG,003,
,,สมหมาย,face1_w.png,m,j,1.133611299970653,No,Pilot03_EEG,003,
,,สายใจ,face3_w.png,f,j,0.8170925000449643,No,Pilot03_EEG,003,
,,ประทีป,face7_m.png,m,k,1.3514217999763787,No,Pilot03_EEG,003,
,,สมหญิง,face7_m.png,f,j,0.8509603000129573,No,Pilot03_EEG,003,
,,สายใจ,face6_m.png,f,k,0.8669624999747612,No,Pilot03_EEG,003,
,,ดวงแก้ว,face10_w.png,f,j,1.3341573999496177,No,Pilot03_EEG,003,
,,ประเสริฐ,face4_w.png,m,j,0.7835387000232004,No,Pilot03_EEG,003,
,,วันเพ็ญ,face5_w.png,f,j,0.9668626000056975,No,Pilot03_EEG,003,
,,สมหญิง,face7_w.png,f,j,0.6173382999841124,No,Pilot03_EEG,003,
,,ประทีป,face1_m.png,m,k,0.6341985000181012,No,Pilot03_EEG,003,
,,ทับทิม,face10_w.png,f,j,0.633814100001473,No,Pilot03_EEG,003,
,,บุญชู,face6_w.png,m,j,0.7170013000140898,No,Pilot03_EEG,003,
,,บุญชู,face2_m.png,m,k,0.8173436000361107,No,Pilot03_EEG,003,
,,ดวงแก้ว,face6_m.png,f,k,0.8337209000019357,No,Pilot03_EEG,003,
,,สมชาย,face8_w.png,m,j,1.4167946000234224,No,Pilot03_EEG,003,
,,พิกุล,face8_w.png,f,j,0.783689100004267,No,Pilot03_EEG,003,
,,ประเสริฐ,face2_w.png,m,j,1.2503412999794818,No,Pilot03_EEG,003,
,,ชูศักดิ์,face4_m.png,m,k,0.7503866999759339,No,Pilot03_EEG,003,
,,ดวงแก้ว,face7_m.png,f,k,0.917144000006374,No,Pilot03_EEG,003,
,,แก้วตา,face8_w.png,f,j,0.7670723000192083,No,Pilot03_EEG,003,
,,สมหมาย,face7_w.png,m,j,1.0336967000039294,No,Pilot03_EEG,003,
,,สมหมาย,face8_w.png,m,j,2.466824200004339,No,Pilot03_EEG,003,
,,พอใจ,face6_w.png,f,j,0.9673054000013508,No,Pilot03_EEG,003,
,,ประเสริฐ,face6_w.png,m,j,0.7011607000022195,No,Pilot03_EEG,003,
,,ประทีป,face1_w.png,m,j,0.7170872999704443,No,Pilot03_EEG,003,
,,สมชาย,face8_m.png,m,k,0.8004025999689475,No,Pilot03_EEG,003,
,,สมชาย,face4_w.png,m,j,1.517076799995266,No,Pilot03_EEG,003,
,,ประเสริฐ,face4_m.png,m,j,0.8834349000244401,No,Pilot03_EEG,003,
,,แก้วตา,face9_m.png,f,k,0.9153856000048108,No,Pilot03_EEG,003,
,,ประทีป,face7_w.png,m,j,0.7336367999669164,No,Pilot03_EEG,003,
,,ประเสริฐ,face1_m.png,m,k,1.866972399991937,No,Pilot03_EEG,003,
,,สมหญิง,face9_m.png,f,k,0.6170157000306062,No,Pilot03_EEG,003,
,,สายใจ,face2_w.png,f,j,0.8670509000075981,No,Pilot03_EEG,003,
,,วันเพ็ญ,face2_w.png,f,j,1.0504496999783441,No,Pilot03_EEG,003,
,,บุญชู,face4_w.png,m,j,1.267090300039854,No,Pilot03_EEG,003,
,,พิกุล,face10_w.png,f,j,1.117156199994497,No,Pilot03_EEG,003,
,,ชูศักดิ์,face2_m.png,m,k,1.0676946000312455,No,Pilot03_EEG,003,
,,สมปอง,face2_m.png,m,k,1.3171102999476716,No,Pilot03_EEG,003,
,,ทองดี,face7_w.png,m,j,1.5170816999743693,No,Pilot03_EEG,003,
,,ทองดี,face10_w.png,m,j,0.6834786999970675,No,Pilot03_EEG,003,
,,ทองดี,face5_w.png,m,j,1.1670402999734506,No,Pilot03_EEG,003,
,,ทับทิม,face3_m.png,f,k,0.6338809000444598,No,Pilot03_EEG,003,
,,มั่นคง,face8_w.png,m,j,0.8172297999844886,No,Pilot03_EEG,003,
,,ชูศักดิ์,face8_m.png,m,k,0.5339651999529451,No,Pilot03_EEG,003,
,,สายใจ,face8_m.png,f,k,0.667144900013227,No,Pilot03_EEG,003,
,,ดวงแก้ว,face9_m.png,f,k,1.8176615000120364,No,Pilot03_EEG,003,
,,ทองดี,face4_m.png,m,k,0.6001986000337638,No,Pilot03_EEG,003,
,,ใบเฟิร์น,face9_w.png,f,j,1.0502078999998048,No,Pilot03_EEG,003,
,,พิกุล,face9_w.png,f,j,1.0834526999969967,No,Pilot03_EEG,003,
,,ฟ้าใส,face5_w.png,f,j,0.7167586999712512,No,Pilot03_EEG,003,
,,ทับทิม,face5_m.png,f,k,0.7005693999817595,No,Pilot03_EEG,003,
,,ใบเฟิร์น,face10_m.png,f,k,1.0002547000185587,No,Pilot03_EEG,003,
,,ทับทิม,face5_w.png,f,j,1.5168544999905862,No,Pilot03_EEG,003,
,,สมหญิง,face10_m.png,f,k,1.9171379000181332,No,Pilot03_EEG,003,
,,ประทีป,face9_w.png,m,j,0.7341826999909244,No,Pilot03_EEG,003,
,,ทองดี,face2_w.png,m,j,1.600877600023523,No,Pilot03_EEG,003,
,,ประทีป,face2_m.png,m,k,0.5670423000119627,No,Pilot03_EEG,003,
,,วันเพ็ญ,face1_w.png,f,j,0.7334856999805197,No,Pilot03_EEG,003,
,,แก้วตา,face9_w.png,f,j,0.9503297999617644,No,Pilot03_EEG,003,
,,พอใจ,face3_w.png,f,j,1.3501775999902748,No,Pilot03_EEG,003,
,,มั่นคง,face9_w.png,m,j,1.2336473999894224,No,Pilot03_EEG,003,
,,มั่นคง,face4_m.png,m,k,0.883489300031215,No,Pilot03_EEG,003,
,,พิกุล,face3_m.png,f,k,1.5835495999781415,No,Pilot03_EEG,003,
,,ทับทิม,face10_m.png,f,k,0.6337365999934264,No,Pilot03_EEG,003,
,,สมหญิง,face6_w.png,f,j,0.8661810999619775,No,Pilot03_EEG,003,
,,ใบเฟิร์น,face1_w.png,f,j,0.6667463000048883,No,Pilot03_EEG,003,
,,ประทีป,face2_w.png,m,j,0.6004799000220373,No,Pilot03_EEG,003,
,,วันเพ็ญ,face9_w.png,f,j,0.5668074000277556,No,Pilot03_EEG,003,
,,สมชาย,face7_w.png,m,j,0.7666534999734722,No,Pilot03_EEG,003,
,,สมหญิง,face6_m.png,f,k,0.918305600003805,No,Pilot03_EEG,003,
,,สายใจ,face9_w.png,f,j,1.2500302999978885,No,Pilot03_EEG,003,
,,วันเพ็ญ,face2_m.png,f,k,1.7837483999901451,No,Pilot03_EEG,003,
,,ทับทิม,face4_w.png,f,j,1.7671516999835148,No,Pilot03_EEG,003,
,,สมหมาย,face7_m.png,m,k,1.3669450999586843,No,Pilot03_EEG,003,
,,พิกุล,face10_m.png,f,k,1.3006239000242203,No,Pilot03_EEG,003,
,,มั่นคง,face2_m.png,m,k,0.8178165000281297,No,Pilot03_EEG,003,
,,ทองดี,face4_w.png,m,j,0.683710599958431,No,Pilot03_EEG,003,
,,ดวงแก้ว,face5_w.png,f,j,1.2168518000398763,No,Pilot03_EEG,003,
,,สมปอง,face9_w.png,m,j,0.7167693999945186,No,Pilot03_EEG,003,
,,สมหญิง,face8_m.png,f,k,1.5002580999862403,No,Pilot03_EEG,003,
,,ฟ้าใส,face2_w.png,f,j,1.067017900000792,No,Pilot03_EEG,003,
,,มานะ,face3_m.png,m,j,0.7842810999718495,No,Pilot03_EEG,003,
,,สมปอง,face3_w.png,m,j,0.650282199960202,No,Pilot03_EEG,003,
,,ทับทิม,face9_m.png,f,k,0.6336309000034817,No,Pilot03_EEG,003,
,,มั่นคง,face7_w.png,m,j,0.883994999981951,No,Pilot03_EEG,003,
,,ดวงแก้ว,face2_w.png,f,j,0.6505308999912813,No,Pilot03_EEG,003,
,,สมปอง,face8_m.png,m,k,1.0003270999877714,No,Pilot03_EEG,003,
,,พิกุล,face2_m.png,f,k,0.6505416000145487,No,Pilot03_EEG,003,
,,ดวงแก้ว,face8_w.png,f,j,0.8503545999992639,No,Pilot03_EEG,003,
,,วันเพ็ญ,face3_w.png,f,j,1.1834895000210963,No,Pilot03_EEG,003,
,,ทับทิม,face4_m.png,f,k,1.3334383000037633,No,Pilot03_EEG,003,
,,พิกุล,face7_w.png,f,j,1.3838811999885365,No,Pilot03_EEG,003,
,,บุญชู,face6_m.png,m,k,0.9337675000424497,No,Pilot03_EEG,003,
,,แก้วตา,face7_m.png,f,k,0.8670301999663934,No,Pilot03_EEG,003,
,,ประทีป,face6_w.png,m,j,1.0670511000207625,No,Pilot03_EEG,003,
,,ประเสริฐ,face8_w.png,m,j,2.066769299970474,No,Pilot03_EEG,003,
,,ทับทิม,face1_w.png,f,j,0.7335711999912746,No,Pilot03_EEG,003,
,,แก้วตา,face1_w.png,f,j,0.7002756000147201,No,Pilot03_EEG,003,
,,สมหญิง,face1_w.png,f,j,0.4841556000174023,No,Pilot03_EEG,003,
,,พิกุล,face1_w.png,f,j,0.6338398000225425,No,Pilot03_EEG,003,
,,บุญชู,face10_w.png,m,j,0.7168643000186421,No,Pilot03_EEG,003,
,,ประเสริฐ,face5_w.png,m,j,1.0507697999710217,No,Pilot03_EEG,003,
,,ฟ้าใส,face7_m.png,f,k,1.133858599991072,No,Pilot03_EEG,003,
,,พิกุล,face4_w.png,f,j,1.3336013000225648,No,Pilot03_EEG,003,
,,สมปอง,face10_m.png,m,k,0.9336466999957338,No,Pilot03_EEG,003,
,,ฟ้าใส,face1_w.png,f,j,0.733761100040283,No,Pilot03_EEG,003,
,,สมหญิง,face3_m.png,f,k,0.7836911000194959,No,Pilot03_EEG,003,
,,วันเพ็ญ,face8_w.png,f,j,0.9669665999826975,No,Pilot03_EEG,003,
,,ประทีป,face8_w.png,m,j,1.1169527999591082,No,Pilot03_EEG,003,
,,สมหมาย,face1_m.png,m,k,0.6169874999905005,No,Pilot03_EEG,003,
,,พอใจ,face5_w.png,f,j,0.8334232000051998,No,Pilot03_EEG,003,
,,สมปอง,face6_m.png,m,k,0.9335767000447959,No,Pilot03_EEG,003,
,,แก้วตา,face10_w.png,f,j,0.6503656000131741,No,Pilot03_EEG,003,
,,มานะ,face9_m.png,m,k,1.2837259999942034,No,Pilot03_EEG,003,
,,มานะ,face9_w.png,m,k,1.817500100005418,No,Pilot03_EEG,003,
,,ใบเฟิร์น,face7_m.png,f,k,0.5504980999976397,No,Pilot03_EEG,003,
,,พิกุล,face4_m.png,f,k,0.5341967000276782,No,Pilot03_EEG,003,
,,ฟ้าใส,face4_w.png,f,j,0.5001636000233702,No,Pilot03_EEG,003,
,,ใบเฟิร์น,face7_w.png,f,j,0.7005008000414819,No,Pilot03_EEG,003,
,,ใบเฟิร์น,face8_w.png,f,j,0.6670435999985784,No,Pilot03_EEG,003,
,,มานะ,face6_w.png,m,j,0.8338329999824055,No,Pilot03_EEG,003,
,,สมหมาย,face2_w.png,m,j,1.1840050999890082,No,Pilot03_EEG,003,
,,ใบเฟิร์น,face6_w.png,f,j,0.7173103999812156,No,Pilot03_EEG,003,
,,ใบเฟิร์น,face2_w.png,f,j,0.8336070000077598,No,Pilot03_EEG,003,
,,บุญชู,face8_w.png,m,j,0.8834842000505887,No,Pilot03_EEG,003,
,,สายใจ,face4_w.png,f,j,1.6168846000218764,No,Pilot03_EEG,003,
,,ทับทิม,face6_w.png,f,j,1.6339680000091903,No,Pilot03_EEG,003,
,,สมปอง,face5_m.png,m,k,1.3003269000328146,No,Pilot03_EEG,003,
,,ใบเฟิร์น,face10_w.png,f,j,1.3838738999911584,No,Pilot03_EEG,003,
,,ทับทิม,face1_m.png,f,k,0.8169004000374116,No,Pilot03_EEG,003,
,,ฟ้าใส,face7_w.png,f,j,1.3176124999881722,No,Pilot03_EEG,003,
,,ชูศักดิ์,face8_w.png,m,j,0.8669468999723904,No,Pilot03_EEG,003,
,,ดวงแก้ว,face1_w.png,f,j,0.6336897000437602,No,Pilot03_EEG,003,
,,บุญชู,face10_m.png,m,k,0.5674132999847643,No,Pilot03_EEG,003,
,,สมชาย,face6_w.png,m,k,1.1338467999594286,No,Pilot03_EEG,003,
,,พิกุล,face1_m.png,f,k,1.0835996000096202,No,Pilot03_EEG,003,
,,วันเพ็ญ,face6_m.png,f,k,0.5004655999946408,No,Pilot03_EEG,003,
,,ดวงแก้ว,face8_m.png,f,k,0.5011202999739908,No,Pilot03_EEG,003,
,,ทองดี,face9_w.png,m,j,0.4836528000305407,No,Pilot03_EEG,003,
,,ประเสริฐ,face7_w.png,m,j,0.5342354000313208,No,Pilot03_EEG,003,
,,บุญชู,face9_m.png,m,k,0.5667786999838427,No,Pilot03_EEG,003,
,,ดวงแก้ว,face9_w.png,f,j,0.8167948999907821,No,Pilot03_EEG,003,
,,สมหมาย,face6_w.png,m,j,1.2837243000394665,No,Pilot03_EEG,003,
,,ชูศักดิ์,face4_w.png,m,k,0.9168119999812916,No,Pilot03_EEG,003,
,,สมหมาย,face10_m.png,m,k,1.7336614999803714,No,Pilot03_EEG,003,
,,ทับทิม,face7_w.png,f,j,0.6002773000509478,No,Pilot03_EEG,003,
,,สมหญิง,face4_m.png,f,k,1.0334477999713272,No,Pilot03_EEG,003,
,,สมปอง,face2_w.png,m,j,1.1020847999607213,No,Pilot03_EEG,003,
,,ประทีป,face3_w.png,m,j,1.1167076000128873,No,Pilot03_EEG,003,
,,สมปอง,face4_w.png,m,j,1.1170626999810338,No,Pilot03_EEG,003,
,,พอใจ,face4_w.png,f,j,0.7006424999563023,No,Pilot03_EEG,003,
,,มานะ,face10_w.png,m,j,1.0504216000554152,No,Pilot03_EEG,003,
,,ประทีป,face10_w.png,m,j,0.500582900014706,No,Pilot03_EEG,003,
,,ประเสริฐ,face6_m.png,m,k,0.6337830999982543,No,Pilot03_EEG,003,
,,สมหญิง,face8_w.png,f,j,0.7170107000274584,No,Pilot03_EEG,003,
,,สายใจ,face4_m.png,f,k,0.6834597000270151,No,Pilot03_EEG,003,
,,พอใจ,face7_m.png,f,k,0.6005187000264414,No,Pilot03_EEG,003,
,,ฟ้าใส,face10_w.png,f,j,2.100240799947642,No,Pilot03_EEG,003,
,,พอใจ,face2_m.png,f,k,0.600304999970831,No,Pilot03_EEG,003,
,,มานะ,face1_w.png,m,j,0.7003267000545748,No,Pilot03_EEG,003,
,,ทองดี,face9_m.png,m,k,1.366758199990727,No,Pilot03_EEG,003,
,,แก้วตา,face5_m.png,f,k,0.6505005999933928,No,Pilot03_EEG,003,
,,ชูศักดิ์,face7_m.png,m,k,1.8003221999970265,No,Pilot03_EEG,003,
,,ใบเฟิร์น,face3_w.png,f,j,1.3168102000490762,No,Pilot03_EEG,003,
,,ชูศักดิ์,face9_m.png,m,k,0.8335669999942183,No,Pilot03_EEG,003,
,,สายใจ,face5_w.png,f,j,0.7669527000398375,No,Pilot03_EEG,003,
,,มานะ,face4_m.png,m,k,0.5167984999716282,No,Pilot03_EEG,003,
,,สมหมาย,face9_m.png,m,k,0.5001899999915622,No,Pilot03_EEG,003,
,,ทับทิม,face6_m.png,f,k,0.5668779999832623,No,Pilot03_EEG,003,
,,พอใจ,face6_m.png,f,k,0.8005734999896958,No,Pilot03_EEG,003,
,,ฟ้าใส,face8_w.png,f,j,0.8334452999988571,No,Pilot03_EEG,003,
,,พิกุล,face7_m.png,f,k,0.7343817999935709,No,Pilot03_EEG,003,
,,บุญชู,face7_w.png,m,j,0.7336006999830715,No,Pilot03_EEG,003,
,,สมปอง,face1_w.png,m,j,0.5507429999997839,No,Pilot03_EEG,003,
,,วันเพ็ญ,face8_m.png,f,k,0.6337033999734558,No,Pilot03_EEG,003,
,,ทับทิม,face2_w.png,f,j,0.8836453999974765,No,Pilot03_EEG,003,
,,มั่นคง,face1_m.png,m,k,0.8177276000496931,No,Pilot03_EEG,003,
,,ชูศักดิ์,face6_w.png,m,j,1.583762599970214,No,Pilot03_EEG,003,
,,สมหมาย,face8_m.png,m,k,1.0669412999995984,No,Pilot03_EEG,003,
,,สายใจ,face1_w.png,f,j,0.9001773999771103,No,Pilot03_EEG,003,
,,มั่นคง,face3_m.png,m,k,0.7004638999933377,No,Pilot03_EEG,003,
,,สายใจ,face3_m.png,f,k,0.7337766999844462,No,Pilot03_EEG,003,
,,แก้วตา,face7_w.png,f,j,0.5670256000012159,No,Pilot03_EEG,003,
,,ฟ้าใส,face8_m.png,f,k,1.1170293999603018,No,Pilot03_EEG,003,
,,พอใจ,face9_m.png,f,k,0.5165558999869972,No,Pilot03_EEG,003,
,,ประเสริฐ,face8_m.png,m,k,0.5008222000324167,No,Pilot03_EEG,003,
,,บุญชู,face7_m.png,m,k,0.6338672999991104,No,Pilot03_EEG,003,
,,ฟ้าใส,face1_m.png,f,k,0.7835485000396147,No,Pilot03_EEG,003,
,,สมชาย,face4_m.png,m,k,0.6006371999974363,No,Pilot03_EEG,003,
,,ทับทิม,face3_w.png,f,k,0.48421439999947324,No,Pilot03_EEG,003,
,,ทับทิม,face8_m.png,f,k,0.8330710000009276,No,Pilot03_EEG,003,
,,มานะ,face2_w.png,m,j,0.5835067000007257,No,Pilot03_EEG,003,
,,ฟ้าใส,face10_m.png,f,k,0.9001281999517232,No,Pilot03_EEG,003,
,,มั่นคง,face3_w.png,m,j,0.516988700022921,No,Pilot03_EEG,003,
,,บุญชู,face4_m.png,m,k,0.7167931000003591,No,Pilot03_EEG,003,
,,ทองดี,face6_m.png,m,k,1.3677540000062436,No,Pilot03_EEG,003,
,,ทองดี,face3_w.png,m,j,0.6009177999803796,No,Pilot03_EEG,003,
,,ทับทิม,face9_w.png,f,j,0.6168795000412501,No,Pilot03_EEG,003,
,,สมชาย,face2_w.png,m,j,0.8002679999917746,No,Pilot03_EEG,003,
,,มานะ,face6_m.png,m,k,0.6503530000336468,No,Pilot03_EEG,003,
,,สมปอง,face7_m.png,m,k,0.717034200031776,No,Pilot03_EEG,003,
,,พอใจ,face4_m.png,f,k,0.5169472999987192,No,Pilot03_EEG,003,
,,มั่นคง,face4_w.png,m,j,0.5001311999512836,No,Pilot03_EEG,003,
,,สมชาย,face10_m.png,m,j,0.9502812999999151,No,Pilot03_EEG,003,
,,ทองดี,face1_w.png,m,k,0.9336524999816902,No,Pilot03_EEG,003,
,,สมชาย,face3_w.png,m,j,1.233677699987311,No,Pilot03_EEG,003,
,,สายใจ,face9_m.png,f,k,1.067017699999269,No,Pilot03_EEG,003,
,,สมปอง,face1_m.png,m,k,1.184085100016091,No,Pilot03_EEG,003,
,,แก้วตา,face3_m.png,f,None,None,Yes,Pilot03_EEG,003,
,,แก้วตา,face3_m.png,f,k,0.700261700025294,No,Pilot03_EEG,003,
,,ฟ้าใส,face9_m.png,f,k,0.9670566999702714,No,Pilot03_EEG,003,
,,มั่นคง,face5_w.png,m,j,0.5669859000481665,No,Pilot03_EEG,003,
,,สมหมาย,face9_w.png,m,j,1.1335690999985673,No,Pilot03_EEG,003,
,,ประเสริฐ,face3_w.png,m,j,0.7502735999878496,No,Pilot03_EEG,003,
,,บุญชู,face3_m.png,m,k,0.633612500037998,No,Pilot03_EEG,003,
,,สมปอง,face10_w.png,m,j,0.9670917000039481,No,Pilot03_EEG,003,
,,ชูศักดิ์,face2_w.png,m,j,1.5337184000527486,No,Pilot03_EEG,003,
,,สายใจ,face5_m.png,f,k,0.5836757000070065,No,Pilot03_EEG,003,
,,ดวงแก้ว,face3_m.png,f,k,0.6334875999600627,No,Pilot03_EEG,003,
,,มานะ,face7_w.png,m,j,1.2171877000364475,No,Pilot03_EEG,003,
,,มั่นคง,face6_m.png,m,k,1.8009308999753557,No,Pilot03_EEG,003,
,,สมชาย,face7_m.png,m,k,1.4169748999993317,No,Pilot03_EEG,003,
,,บุญชู,face9_w.png,m,j,0.6837169000064023,No,Pilot03_EEG,003,
,,พอใจ,face3_m.png,f,k,1.7335981000214815,No,Pilot03_EEG,003,
,,สมหมาย,face5_w.png,m,j,1.5335002999636345,No,Pilot03_EEG,003,
,,ดวงแก้ว,face10_m.png,f,k,0.8335592999937944,No,Pilot03_EEG,003,
,,ประทีป,face4_m.png,m,k,0.5003048999933526,No,Pilot03_EEG,003,
,,มานะ,face3_w.png,m,j,2.384144000010565,No,Pilot03_EEG,003,
,,บุญชู,face5_w.png,m,j,0.815283699950669,No,Pilot03_EEG,003,
,,พอใจ,face8_w.png,f,j,0.8336467000190169,No,Pilot03_EEG,003,
,,ทองดี,face10_m.png,m,k,0.55035630002385,No,Pilot03_EEG,003,
,,มานะ,face5_m.png,m,k,0.5336985000176355,No,Pilot03_EEG,003,
,,สายใจ,face1_m.png,f,k,0.5670247999951243,No,Pilot03_EEG,003,
,,พิกุล,face6_m.png,f,k,0.4168883999809623,No,Pilot03_EEG,003,
,,สมปอง,face4_m.png,m,k,0.5503147999988869,No,Pilot03_EEG,003,
,,ชูศักดิ์,face7_w.png,m,j,1.4505376999732107,No,Pilot03_EEG,003,
,,บุญชู,face5_m.png,m,k,1.0503661000402644,No,Pilot03_EEG,003,
,,แก้วตา,face6_w.png,f,j,1.2503727999865077,No,Pilot03_EEG,003,
,,มั่นคง,face8_m.png,m,k,1.133832799969241,No,Pilot03_EEG,003,
,,สมปอง,face7_w.png,m,None,None,Yes,Pilot03_EEG,003,
,,สมปอง,face7_w.png,m,j,0.6672053999500349,No,Pilot03_EEG,003,
,,ประเสริฐ,face7_m.png,m,k,1.1670510999974795,No,Pilot03_EEG,003,
,,มั่นคง,face10_m.png,m,k,0.6838662999798544,No,Pilot03_EEG,003,
,,บุญชู,face2_w.png,m,j,0.8172670999774709,No,Pilot03_EEG,003,
,,ประเสริฐ,face9_m.png,m,k,0.6835079000447877,No,Pilot03_EEG,003,
,,สายใจ,face8_w.png,f,j,0.5502055999822915,No,Pilot03_EEG,003,
,,สมชาย,face5_w.png,m,j,0.6500827000127174,No,Pilot03_EEG,003,
,,ประเสริฐ,face1_w.png,m,j,0.5335601000115275,No,Pilot03_EEG,003,
,,ประเสริฐ,face2_m.png,m,k,0.6503269999520853,No,Pilot03_EEG,003,
,,แก้วตา,face2_m.png,f,k,0.48380420001922175,No,Pilot03_EEG,003,
,,แก้วตา,face10_m.png,f,k,0.6838801999692805,No,Pilot03_EEG,003,
,,พอใจ,face10_m.png,f,k,0.5500847999937832,No,Pilot03_EEG,003,
,,ดวงแก้ว,face2_m.png,f,k,0.8172923999954946,No,Pilot03_EEG,003,
,,ทองดี,face8_m.png,m,k,0.8506836000015028,No,Pilot03_EEG,003,
,,สายใจ,face2_m.png,f,k,0.5840718999970704,No,Pilot03_EEG,003,
,,สมชาย,face9_m.png,m,k,1.1832231999724172,No,Pilot03_EEG,003,
,,วันเพ็ญ,face3_m.png,f,k,1.2177144999732263,No,Pilot03_EEG,003,
,,พิกุล,face9_m.png,f,k,0.8669227999635041,No,Pilot03_EEG,003,
,,สมหมาย,face3_m.png,m,k,0.8489129000226967,No,Pilot03_EEG,003,
,,ทับทิม,face2_m.png,f,k,1.5503248000168242,No,Pilot03_EEG,003,
,,สมชาย,face10_w.png,m,j,0.5172625000122935,No,Pilot03_EEG,003,
,,พอใจ,face1_w.png,f,j,0.8169442000216804,No,Pilot03_EEG,003,
,,ใบเฟิร์น,face3_m.png,f,k,1.2338303999858908,No,Pilot03_EEG,003,
,,ฟ้าใส,face4_m.png,f,k,0.7172666999977082,No,Pilot03_EEG,003,
,,ประทีป,face9_m.png,m,k,0.5170726999640465,No,Pilot03_EEG,003,
,,ดวงแก้ว,face3_w.png,f,j,0.5837293000076897,No,Pilot03_EEG,003,
,,พอใจ,face2_w.png,f,j,0.5336080999695696,No,Pilot03_EEG,003,
,,ชูศักดิ์,face9_w.png,m,j,0.5322573999874294,No,Pilot03_EEG,003,
,,ชูศักดิ์,face10_m.png,m,k,0.7333019000361674,No,Pilot03_EEG,003,
,,ชูศักดิ์,face10_w.png,m,j,0.7008102999534458,No,Pilot03_EEG,003,
,,สมปอง,face9_m.png,m,k,0.6004045999725349,No,Pilot03_EEG,003,
,,ประเสริฐ,face9_w.png,m,j,0.500285099959001,No,Pilot03_EEG,003,
,,สมหญิง,face10_w.png,f,j,0.9170265999855474,No,Pilot03_EEG,003,
,,ชูศักดิ์,face1_m.png,m,k,0.6837322000064887,No,Pilot03_EEG,003,
,,ประทีป,face10_m.png,m,k,1.2337649000110105,No,Pilot03_EEG,003,
,,ชูศักดิ์,face1_w.png,m,j,0.8670473000383936,No,Pilot03_EEG,003,
,,สมปอง,face5_w.png,m,j,0.8337300000130199,No,Pilot03_EEG,003,
,,มั่นคง,face2_w.png,m,j,0.5503669999889098,No,Pilot03_EEG,003,
,,ประเสริฐ,face5_m.png,m,k,1.200525699998252,No,Pilot03_EEG,003,
,,แก้วตา,face6_m.png,f,k,0.5837538999621756,No,Pilot03_EEG,003,
,,วันเพ็ญ,face4_m.png,f,k,0.5668175999890082,No,Pilot03_EEG,003,
,,ดวงแก้ว,face5_m.png,f,k,0.6003136999788694,No,Pilot03_EEG,003,
,,สมชาย,face6_m.png,m,k,0.7837949999957345,No,Pilot03_EEG,003,
,,ประเสริฐ,face3_m.png,m,k,0.8337675999500789,No,Pilot03_EEG,003,
,,พอใจ,face1_m.png,f,k,0.5168495000107214,No,Pilot03_EEG,003,
,,สมปอง,face3_m.png,m,k,0.450080499984324,No,Pilot03_EEG,003,
,,ฟ้าใส,face3_m.png,f,k,0.4502640999853611,No,Pilot03_EEG,003,
,,มั่นคง,face7_m.png,m,k,0.5170181000139564,No,Pilot03_EEG,003,
,,ดวงแก้ว,face4_m.png,f,k,0.48374679998960346,No,Pilot03_EEG,003,
,,วันเพ็ญ,face7_m.png,f,k,0.48386560002109036,No,Pilot03_EEG,003,
,,สายใจ,face10_m.png,f,k,0.4505091999890283,No,Pilot03_EEG,003,
,,พิกุล,face5_w.png,f,j,0.5337205000105314,No,Pilot03_EEG,003,
,,ดวงแก้ว,face4_w.png,f,j,0.6003301999880932,No,Pilot03_EEG,003,
,,ฟ้าใส,face5_m.png,f,j,0.5009926999919116,No,Pilot03_EEG,003,
,,ใบเฟิร์น,face4_m.png,f,k,0.6500947000458837,No,Pilot03_EEG,003,
,,วันเพ็ญ,face10_m.png,f,k,0.5335328000364825,No,Pilot03_EEG,003,
,,สมชาย,face3_m.png,m,k,0.783582900010515,No,Pilot03_EEG,003,
,,ประเสริฐ,face10_m.png,m,j,0.9671965999878012,No,Pilot03_EEG,003,
,,สมหมาย,face3_w.png,m,j,0.6668209999916144,No,Pilot03_EEG,003,
,,ใบเฟิร์น,face6_m.png,f,k,0.6669899999978952,No,Pilot03_EEG,003,
,,วันเพ็ญ,face7_w.png,f,j,0.8172449999838136,No,Pilot03_EEG,003,
,,พอใจ,face5_m.png,f,k,0.6837436999776401,No,Pilot03_EEG,003,
,,สายใจ,face7_m.png,f,j,0.7002746000071056,No,Pilot03_EEG,003,
,,แก้วตา,face1_m.png,f,k,0.6501711000455543,No,Pilot03_EEG,003,
,,ชูศักดิ์,face3_w.png,m,j,0.600105400022585,No,Pilot03_EEG,003,
,,ดวงแก้ว,face1_m.png,f,k,0.5837971000000834,No,Pilot03_EEG,003,
,,มานะ,face8_m.png,m,k,0.7005272999522276,No,Pilot03_EEG,003,
,,สมหญิง,face4_w.png,f,j,0.5167622999870218,No,Pilot03_EEG,003,
,,ทองดี,face5_m.png,m,k,0.5668818000121973,No,Pilot03_EEG,003,
,,พอใจ,face7_w.png,f,j,0.5336252999841236,No,Pilot03_EEG,003,
,,แก้วตา,face8_m.png,f,k,0.5337796999956481,No,Pilot03_EEG,003,
,,ใบเฟิร์น,face5_w.png,f,j,0.7336367000243627,No,Pilot03_EEG,003,
,,สมชาย,face5_m.png,m,k,0.8339657000033185,No,Pilot03_EEG,003,
,,ฟ้าใส,face6_w.png,f,j,0.6177787999622524,No,Pilot03_EEG,003,
,,มานะ,face1_m.png,m,j,1.2503352999920025,No,Pilot03_EEG,003,
,,มั่นคง,face9_m.png,m,k,0.6668483999674208,No,Pilot03_EEG,003,
,,บุญชู,face8_m.png,m,k,0.4670023000217043,No,Pilot03_EEG,003,
,,สมหญิง,face1_m.png,f,k,0.5166557999909855,No,Pilot03_EEG,003,
,,สมปอง,face8_w.png,m,j,0.9340786999673583,No,Pilot03_EEG,003,
,,ดวงแก้ว,face7_w.png,f,j,0.6002456999849528,No,Pilot03_EEG,003,
,,ใบเฟิร์น,face8_m.png,f,k,0.8837136999936774,No,Pilot03_EEG,003,
,,สายใจ,face6_w.png,f,j,0.6005121000343934,No,Pilot03_EEG,003,
,,พิกุล,face2_w.png,f,j,0.5005740000051446,No,Pilot03_EEG,003,
,,ชูศักดิ์,face3_m.png,m,k,0.6839105000253767,No,Pilot03_EEG,003,
,,ประทีป,face6_m.png,m,j,1.2338837999850512,No,Pilot03_EEG,003,
,,ทองดี,face3_m.png,m,k,0.5835574000375345,No,Pilot03_EEG,003,
,,ทับทิม,face7_m.png,f,k,0.8171907000360079,No,Pilot03_EEG,003,
,,มานะ,face8_w.png,m,j,0.5502794000203721,No,Pilot03_EEG,003,
,,แก้วตา,face5_w.png,f,j,0.8334387000068091,No,Pilot03_EEG,003,
,,พอใจ,face10_w.png,f,j,0.6168997000204399,No,Pilot03_EEG,003,
,,มั่นคง,face1_w.png,m,j,0.6502815000130795,No,Pilot03_EEG,003,
,,สมหญิง,face9_w.png,f,j,0.5667701999773271,No,Pilot03_EEG,003,
,,ใบเฟิร์น,face5_m.png,f,k,1.1843691999674775,No,Pilot03_EEG,003,
,,พิกุล,face8_m.png,f,k,1.1511783000314608,No,Pilot03_EEG,003,
,,วันเพ็ญ,face5_m.png,f,k,1.3173008000012487,No,Pilot03_EEG,003,
,,แก้วตา,face2_w.png,f,j,1.983921500039287,No,Pilot03_EEG,003,
,,ชูศักดิ์,face5_w.png,m,j,1.4004448999767192,No,Pilot03_EEG,003,
,,บุญชู,face1_w.png,m,k,1.6176121000316925,No,Pilot03_EEG,003,
,,ทองดี,face8_w.png,m,j,0.6337009000126272,No,Pilot03_EEG,003,
,,สายใจ,face7_w.png,f,j,0.5504623000160791,No,Pilot03_EEG,003,
,,สมหญิง,face3_w.png,f,j,0.8002366999862716,No,Pilot03_EEG,003,
,,ใบเฟิร์น,face9_m.png,f,k,0.4834049000055529,No,Pilot03_EEG,003,
,,มานะ,face4_w.png,m,j,0.4002452999702655,No,Pilot03_EEG,003,
,,สมหมาย,face4_w.png,m,j,0.3670599000179209,No,Pilot03_EEG,003,
,,บุญชู,face1_m.png,m,k,0.5335366000072099,No,Pilot03_EEG,003,
,,สมหมาย,face10_w.png,m,j,0.633823299955111,No,Pilot03_EEG,003,
,,ใบเฟิร์น,face4_w.png,f,j,0.7170764000038616,No,Pilot03_EEG,003,
,,ประทีป,face3_m.png,m,k,0.5835401000222191,No,Pilot03_EEG,003,
,,สมชาย,face2_m.png,m,k,1.5671230000443757,No,Pilot03_EEG,003,
,,พิกุล,face3_w.png,f,j,0.6668887999840081,No,Pilot03_EEG,003,
,,มั่นคง,face10_w.png,m,j,0.5667874999926426,No,Pilot03_EEG,003,
,,ทองดี,face1_m.png,m,k,1.4503178999875672,No,Pilot03_EEG,003,
,,ทองดี,face2_m.png,m,k,1.6339404999744147,No,Pilot03_EEG,003,
,,มานะ,face2_m.png,m,k,0.5672672999789938,No,Pilot03_EEG,003,
,,แก้วตา,face4_m.png,f,k,0.8668195999925956,No,Pilot03_EEG,003,
,,ฟ้าใส,face2_m.png,f,k,0.6836275000241585,No,Pilot03_EEG,003,
,,มานะ,face10_m.png,m,k,0.5677757000084966,No,Pilot03_EEG,003,
,,ใบเฟิร์น,face1_m.png,f,k,0.6504513000254519,No,Pilot03_EEG,003,
,,ฟ้าใส,face9_w.png,f,j,0.6834435999626294,No,Pilot03_EEG,003,
,,สมหญิง,face2_w.png,f,j,1.9505040000076406,No,Pilot03_EEG,003,
,,ชูศักดิ์,face6_m.png,m,k,0.6004359999787994,No,Pilot03_EEG,003,
,,ประทีป,face4_w.png,m,j,0.6177011000108905,No,Pilot03_EEG,003,
,,ดวงแก้ว,face6_w.png,f,j,0.5005259999888949,No,Pilot03_EEG,003,
,,สายใจ,face10_w.png,f,j,0.5334519000025466,No,Pilot03_EEG,003,
,,วันเพ็ญ,face10_w.png,f,j,0.601676199992653,No,Pilot03_EEG,003,
,,สมชาย,face1_m.png,m,k,1.5669018999906257,No,Pilot03_EEG,003,
,,แก้วตา,face3_w.png,f,j,0.5167677000281401,No,Pilot03_EEG,003,
,,สมปอง,face6_w.png,m,j,0.7005075999768451,No,Pilot03_EEG,003,
,,มานะ,face5_w.png,m,j,0.6004019000101835,No,Pilot03_EEG,003,
,,วันเพ็ญ,face6_w.png,f,j,1.2337595000280999,No,Pilot03_EEG,003,
,,ประทีป,face5_w.png,m,j,0.6336233000038192,No,Pilot03_EEG,003,
,,สมหมาย,face2_m.png,m,k,0.8170283000217751,No,Pilot03_EEG,003,
,,ชูศักดิ์,face5_m.png,m,k,0.5006718999939039,No,Pilot03_EEG,003,
,,สมหมาย,face5_m.png,m,k,0.7504741000011563,No,Pilot03_EEG,003,
,,มั่นคง,face6_w.png,m,j,1.6176531999954022,No,Pilot03_EEG,003,
,,ทองดี,face6_w.png,m,j,0.6004984999890439,No,Pilot03_EEG,003,
,,พิกุล,face6_w.png,f,j,0.8506816000444815,No,Pilot03_EEG,003,
,,ฟ้าใส,face6_m.png,f,k,0.6503081999835558,No,Pilot03_EEG,003,
,,ทองดี,face7_m.png,m,k,0.6336316000088118,No,Pilot03_EEG,003,
,,วันเพ็ญ,face1_m.png,f,k,0.5505879999836907,No,Pilot03_EEG,003,
,,พอใจ,face9_w.png,f,j,0.6670258999802172,No,Pilot03_EEG,003,
,,บุญชู,face3_w.png,m,j,0.533559100003913,No,Pilot03_EEG,003,
,,ประทีป,face8_m.png,m,k,0.5847120999824256,No,Pilot03_EEG,003,
,,สมชาย,face9_w.png,m,j,0.5669245999888517,No,Pilot03_EEG,003,
,,ใบเฟิร์น,face2_m.png,f,k,0.8336850000196137,No,Pilot03_EEG,003,
,,ฟ้าใส,face3_w.png,f,j,0.7840346000157297,No,Pilot03_EEG,003,
,,ทับทิม,face8_w.png,f,j,1.2831668000435457,No,Pilot03_EEG,003,
,,พิกุล,face5_m.png,f,k,0.8999954999890178,No,Pilot03_EEG,003,
,,แก้วตา,face4_w.png,f,j,0.783082399982959,No,Pilot03_EEG,003,
,,สมหญิง,face2_m.png,f,j,1.4337302999920212,No,Pilot03_EEG,003,
,,สมหญิง,face5_m.png,f,k,1.1167568999808282,No,Pilot03_EEG,003,
