Male,Female,Image,Name,ImagePriming,NamePriming,ImageTrig,NameTrig,Trig,thisN,thisTrialN,thisRepN,key_resp.keys,key_resp.rt,key_resp.duration,key_resp_3.keys,key_resp_3.rt,key_resp_3.duration,training.thisRepN,training.thisTrialN,training.thisN,training.thisIndex,priming.thisRepN,priming.thisTrialN,priming.thisN,priming.thisIndex,thisRow.t,notes,training_Instruction.started,instruction_slide.started,instruction_continue.started,training_Instruction.stopped,instruction_continue.keys,instruction_continue.rt,instruction_continue.duration,training_block.started,MAN.started,WOMAN.started,pic.started,key_resp.started,training_block.stopped,training.key_resp.keys,training.key_resp.rt,training.key_resp.duration,priming_instruction.started,instruction_slide_2.started,instruction_continue_2.started,priming_instruction.stopped,instruction_continue_2.keys,instruction_continue_2.rt,instruction_continue_2.duration,priming_block.started,MAN_3.started,MAN_3_desc.started,WOMAN_3.started,WOMAN_3_desc.started,name_2.started,key_resp_3.started,pic_2.started,name_2.stopped,priming_block.stopped,priming.key_resp_3.keys,priming.key_resp_3.rt,priming.key_resp_3.duration,Ending.started,Ending.stopped,participant,session,date,expName,expVersion,psychopyVersion,frameRate,expStart,
,,,,,,,,,,,,,,,,,,,,,,,,,,,,0.008243400021456182,0.018399300053715706,0.018399300053715706,1.740825700107962,space,1.7141097999410704,None,,,,,,,,,,,,,,,,,,,,,,,,,,,,,,,,test1,002,2025-09-26_09h34.47.089,Priming_gender,,2025.1.1,60.357315272795596,2025-09-26 09h34.59.449542 +0700,
นเรศ,พิมพ์ใจ,women.png,นเรศ,men.png,นเรศ,10,51,101,0,0,0,j,0.9430416999384761,None,,,,0,0,0,1,,,,,1.7973902000812814,,,,,,,,,1.7821171000832692,1.7973902000812814,1.7973902000812814,1.7973902000812814,1.7973902000812814,2.750138000003062,j,0.9430416999384761,None,,,,,,,,,,,,,,,,,,,,,,,test1,002,2025-09-26_09h34.47.089,Priming_gender,,2025.1.1,60.357315272795596,2025-09-26 09h34.59.449542 +0700,
กฤษณะ,กาญจนา,men.png,กฤษณะ,men.png,กฤษณะ,10,50,100,1,1,0,k,0.6263203000416979,None,,,,0,1,1,0,,,,,2.7867667000973597,,,,,,,,,2.7790753000881523,2.7867667000973597,2.7867667000973597,2.7867667000973597,2.7867667000973597,3.416216800105758,k,0.6263203000416979,None,,,,,,,,,,,,,,,,,,,,,,,test1,002,2025-09-26_09h34.47.089,Priming_gender,,2025.1.1,60.357315272795596,2025-09-26 09h34.59.449542 +0700,
กฤษณะ,กาญจนา,men.png,กฤษณะ,men.png,กฤษณะ,10,50,100,2,2,1,k,0.8563469999935478,None,,,,1,2,2,0,,,,,3.452100499998778,,,,,,,,,3.4440209000604227,3.452100499998778,3.452100499998778,3.452100499998778,3.452100499998778,4.316927600069903,k,0.8563469999935478,None,,,,,,,,,,,,,,,,,,,,,,,test1,002,2025-09-26_09h34.47.089,Priming_gender,,2025.1.1,60.357315272795596,2025-09-26 09h34.59.449542 +0700,
กฤษณะ,กาญจนา,men.png,กฤษณะ,men.png,กฤษณะ,10,50,100,3,3,2,k,1.1386071000015363,None,,,,2,3,3,0,,,,,4.353465500054881,,,,,,,,,4.344885700033046,4.353465500054881,4.353465500054881,4.353465500054881,4.353465500054881,5.499947800068185,k,1.1386071000015363,None,,,,,,,,,,,,,,,,,,,,,,,test1,002,2025-09-26_09h34.47.089,Priming_gender,,2025.1.1,60.357315272795596,2025-09-26 09h34.59.449542 +0700,
นเรศ,พิมพ์ใจ,women.png,นเรศ,men.png,นเรศ,10,51,101,4,4,1,j,0.852249399991706,None,,,,1,4,4,1,,,,,5.535610100021586,,,,,,,,,5.526577100041322,5.535610100021586,5.535610100021586,5.535610100021586,5.535610100021586,6.399481300031766,j,0.852249399991706,None,,,,,,,,,,,,,,,,,,,,,,,test1,002,2025-09-26_09h34.47.089,Priming_gender,,2025.1.1,60.357315272795596,2025-09-26 09h34.59.449542 +0700,
นเรศ,พิมพ์ใจ,women.png,นเรศ,men.png,นเรศ,10,51,101,5,5,2,j,0.6416635999921709,None,,,,2,5,5,1,,,,,6.434959900099784,,,,,,,,,6.427532600006089,6.434959900099784,6.434959900099784,6.434959900099784,6.434959900099784,7.083329300046898,j,0.6416635999921709,None,,,,,,,,,,,,,,,,,,,,,,,test1,002,2025-09-26_09h34.47.089,Priming_gender,,2025.1.1,60.357315272795596,2025-09-26 09h34.59.449542 +0700,
นเรศ,พิมพ์ใจ,women.png,นเรศ,men.png,นเรศ,10,51,101,6,6,3,j,1.203200799995102,None,,,,3,6,6,1,,,,,7.120509400032461,,,,,,,,,7.110979000106454,7.120509400032461,7.120509400032461,7.120509400032461,7.120509400032461,8.332651200005785,j,1.203200799995102,None,,,,,,,,,,,,,,,,,,,,,,,test1,002,2025-09-26_09h34.47.089,Priming_gender,,2025.1.1,60.357315272795596,2025-09-26 09h34.59.449542 +0700,
กฤษณะ,กาญจนา,men.png,กฤษณะ,men.png,กฤษณะ,10,50,100,7,7,3,k,1.1372805999126285,None,,,,3,7,7,0,,,,,8.371286500012502,,,,,,,,,8.36099600000307,8.371286500012502,8.371286500012502,8.371286500012502,8.371286500012502,9.516225000028498,k,1.1372805999126285,None,,,,,,,,,,,,,,,,,,,,,,,test1,002,2025-09-26_09h34.47.089,Priming_gender,,2025.1.1,60.357315272795596,2025-09-26 09h34.59.449542 +0700,
นเรศ,พิมพ์ใจ,women.png,นเรศ,men.png,นเรศ,10,51,101,8,8,4,j,1.3950953000457957,None,,,,4,8,8,1,,,,,9.55356460006442,,,,,,,,,9.54442580009345,9.55356460006442,9.55356460006442,9.55356460006442,9.55356460006442,10.949743600096554,j,1.3950953000457957,None,,,,,,,,,,,,,,,,,,,,,,,test1,002,2025-09-26_09h34.47.089,Priming_gender,,2025.1.1,60.357315272795596,2025-09-26 09h34.59.449542 +0700,
กฤษณะ,กาญจนา,men.png,กฤษณะ,men.png,กฤษณะ,10,50,100,9,9,4,k,1.2728379999753088,None,,,,4,9,9,0,,,,,10.987055000034161,,,,,,,,,10.977703200071119,10.987055000034161,10.987055000034161,10.987055000034161,10.987055000034161,12.26546500006225,k,1.2728379999753088,None,,,,,,,,,,,,,,,,,,,,,,,test1,002,2025-09-26_09h34.47.089,Priming_gender,,2025.1.1,60.357315272795596,2025-09-26 09h34.59.449542 +0700,
กฤษณะ,กาญจนา,men.png,กฤษณะ,men.png,กฤษณะ,10,50,100,10,10,5,k,0.4224793999455869,None,,,,5,10,10,0,,,,,12.31772000005003,,,,,,,,,12.30878630001098,12.31772000005003,12.31772000005003,12.31772000005003,12.31772000005003,12.749559100018814,k,0.4224793999455869,None,,,,,,,,,,,,,,,,,,,,,,,test1,002,2025-09-26_09h34.47.089,Priming_gender,,2025.1.1,60.357315272795596,2025-09-26 09h34.59.449542 +0700,
นเรศ,พิมพ์ใจ,women.png,นเรศ,men.png,นเรศ,10,51,101,11,11,5,j,1.408269300009124,None,,,,5,11,11,1,,,,,12.78826990001835,,,,,,,,,12.77943100000266,12.78826990001835,12.78826990001835,12.78826990001835,12.78826990001835,14.198985100025311,j,1.408269300009124,None,,,,,,,,,,,,,,,,,,,,,,,test1,002,2025-09-26_09h34.47.089,Priming_gender,,2025.1.1,60.357315272795596,2025-09-26 09h34.59.449542 +0700,
นเรศ,พิมพ์ใจ,women.png,นเรศ,men.png,นเรศ,10,51,101,12,12,6,j,0.6330889000091702,None,,,,6,12,12,1,,,,,14.234654400032014,,,,,,,,,14.226381800021045,14.234654400032014,14.234654400032014,14.234654400032014,14.234654400032014,14.88327750004828,j,0.6330889000091702,None,,,,,,,,,,,,,,,,,,,,,,,test1,002,2025-09-26_09h34.47.089,Priming_gender,,2025.1.1,60.357315272795596,2025-09-26 09h34.59.449542 +0700,
นเรศ,พิมพ์ใจ,women.png,นเรศ,men.png,นเรศ,10,51,101,13,13,7,j,1.1308243999956176,None,,,,7,13,13,1,,,,,14.921021300018765,,,,,,,,,14.911998600000516,14.921021300018765,14.921021300018765,14.921021300018765,14.921021300018765,16.065703900065273,j,1.1308243999956176,None,,,,,,,,,,,,,,,,,,,,,,,test1,002,2025-09-26_09h34.47.089,Priming_gender,,2025.1.1,60.357315272795596,2025-09-26 09h34.59.449542 +0700,
นเรศ,พิมพ์ใจ,women.png,นเรศ,men.png,นเรศ,10,51,101,14,14,8,j,0.42918470001313835,None,,,,8,14,14,1,,,,,16.103044400108047,,,,,,,,,16.093747200095095,16.103044400108047,16.103044400108047,16.103044400108047,16.103044400108047,16.54913610010408,j,0.42918470001313835,None,,,,,,,,,,,,,,,,,,,,,,,test1,002,2025-09-26_09h34.47.089,Priming_gender,,2025.1.1,60.357315272795596,2025-09-26 09h34.59.449542 +0700,
กฤษณะ,กาญจนา,men.png,กฤษณะ,men.png,กฤษณะ,10,50,100,15,15,6,k,0.8921911000506952,None,,,,6,15,15,0,,,,,16.584468300105073,,,,,,,,,16.57737450010609,16.584468300105073,16.584468300105073,16.584468300105073,16.584468300105073,17.482345100026578,k,0.8921911000506952,None,,,,,,,,,,,,,,,,,,,,,,,test1,002,2025-09-26_09h34.47.089,Priming_gender,,2025.1.1,60.357315272795596,2025-09-26 09h34.59.449542 +0700,
นเรศ,พิมพ์ใจ,women.png,นเรศ,men.png,นเรศ,10,51,101,16,16,9,j,1.0929426999064162,None,,,,9,16,16,1,,,,,17.519822100060992,,,,,,,,,17.511055500013754,17.519822100060992,17.519822100060992,17.519822100060992,17.519822100060992,18.615601200028323,j,1.0929426999064162,None,,,,,,,,,,,,,,,,,,,,,,,test1,002,2025-09-26_09h34.47.089,Priming_gender,,2025.1.1,60.357315272795596,2025-09-26 09h34.59.449542 +0700,
นเรศ,พิมพ์ใจ,women.png,นเรศ,men.png,นเรศ,10,51,101,17,17,10,j,0.693602200015448,None,,,,10,17,17,1,,,,,18.654867200064473,,,,,,,,,18.644491200102493,18.654867200064473,18.654867200064473,18.654867200064473,18.654867200064473,19.365807600086555,j,0.693602200015448,None,,,,,,,,,,,,,,,,,,,,,,,test1,002,2025-09-26_09h34.47.089,Priming_gender,,2025.1.1,60.357315272795596,2025-09-26 09h34.59.449542 +0700,
กฤษณะ,กาญจนา,men.png,กฤษณะ,men.png,กฤษณะ,10,50,100,18,18,7,k,0.5543252000352368,None,,,,7,18,18,0,,,,,19.401985200005583,,,,,,,,,19.394132500048727,19.401985200005583,19.401985200005583,19.401985200005583,19.401985200005583,19.96511820005253,k,0.5543252000352368,None,,,,,,,,,,,,,,,,,,,,,,,test1,002,2025-09-26_09h34.47.089,Priming_gender,,2025.1.1,60.357315272795596,2025-09-26 09h34.59.449542 +0700,
กฤษณะ,กาญจนา,men.png,กฤษณะ,men.png,กฤษณะ,10,50,100,19,19,8,k,0.46699649991933256,None,,,,8,19,19,0,,,,,20.000829500029795,,,,,,,,,19.99365720001515,20.000829500029795,20.000829500029795,20.000829500029795,20.000829500029795,20.48202420002781,k,0.46699649991933256,None,,,,,,,,,,,,,,,,,,,,,,,test1,002,2025-09-26_09h34.47.089,Priming_gender,,2025.1.1,60.357315272795596,2025-09-26 09h34.59.449542 +0700,
กฤษณะ,กาญจนา,men.png,กฤษณะ,men.png,กฤษณะ,10,50,100,20,20,9,k,0.3168376999674365,None,,,,9,20,20,0,,,,,20.518764900043607,,,,,,,,,20.509037400013767,20.518764900043607,20.518764900043607,20.518764900043607,20.518764900043607,20.849292000057176,k,0.3168376999674365,None,,,,,,,,,,,,,,,,,,,,,,,test1,002,2025-09-26_09h34.47.089,Priming_gender,,2025.1.1,60.357315272795596,2025-09-26 09h34.59.449542 +0700,
นเรศ,พิมพ์ใจ,women.png,นเรศ,men.png,นเรศ,10,51,101,21,21,11,j,1.087093900074251,None,,,,11,21,21,1,,,,,20.885356500046328,,,,,,,,,20.87803060002625,20.885356500046328,20.885356500046328,20.885356500046328,20.885356500046328,21.982543000020087,j,1.087093900074251,None,,,,,,,,,,,,,,,,,,,,,,,test1,002,2025-09-26_09h34.47.089,Priming_gender,,2025.1.1,60.357315272795596,2025-09-26 09h34.59.449542 +0700,
กฤษณะ,กาญจนา,men.png,กฤษณะ,men.png,กฤษณะ,10,50,100,22,22,10,k,0.8794556999346241,None,,,,10,22,22,0,,,,,22.021072400035337,,,,,,,,,22.011842800071463,22.021072400035337,22.021072400035337,22.021072400035337,22.021072400035337,22.915552300051786,k,0.8794556999346241,None,,,,,,,,,,,,,,,,,,,,,,,test1,002,2025-09-26_09h34.47.089,Priming_gender,,2025.1.1,60.357315272795596,2025-09-26 09h34.59.449542 +0700,
นเรศ,พิมพ์ใจ,women.png,นเรศ,men.png,นเรศ,10,51,101,23,23,12,j,0.9061922000255436,None,,,,12,23,23,1,,,,,22.954165200004354,,,,,,,,,22.945277200080454,22.954165200004354,22.954165200004354,22.954165200004354,22.954165200004354,23.86483480001334,j,0.9061922000255436,None,,,,,,,,,,,,,,,,,,,,,,,test1,002,2025-09-26_09h34.47.089,Priming_gender,,2025.1.1,60.357315272795596,2025-09-26 09h34.59.449542 +0700,
นเรศ,พิมพ์ใจ,women.png,นเรศ,men.png,นเรศ,10,51,101,24,24,13,j,0.6306620999239385,None,,,,13,24,24,1,,,,,23.901629300089553,,,,,,,,,23.892270100070164,23.901629300089553,23.901629300089553,23.901629300089553,23.901629300089553,24.54803790000733,j,0.6306620999239385,None,,,,,,,,,,,,,,,,,,,,,,,test1,002,2025-09-26_09h34.47.089,Priming_gender,,2025.1.1,60.357315272795596,2025-09-26 09h34.59.449542 +0700,
กฤษณะ,กาญจนา,men.png,กฤษณะ,men.png,กฤษณะ,10,50,100,25,25,11,k,1.212478999979794,None,,,,11,25,25,0,,,,,24.58411680010613,,,,,,,,,24.576827200013213,24.58411680010613,24.58411680010613,24.58411680010613,24.58411680010613,25.797912100097165,k,1.212478999979794,None,,,,,,,,,,,,,,,,,,,,,,,test1,002,2025-09-26_09h34.47.089,Priming_gender,,2025.1.1,60.357315272795596,2025-09-26 09h34.59.449542 +0700,
นเรศ,พิมพ์ใจ,women.png,นเรศ,men.png,นเรศ,10,51,101,26,26,14,j,0.8265756999608129,None,,,,14,26,26,1,,,,,25.834052300080657,,,,,,,,,25.825315000023693,25.834052300080657,25.834052300080657,25.834052300080657,25.834052300080657,26.664979799999855,j,0.8265756999608129,None,,,,,,,,,,,,,,,,,,,,,,,test1,002,2025-09-26_09h34.47.089,Priming_gender,,2025.1.1,60.357315272795596,2025-09-26 09h34.59.449542 +0700,
กฤษณะ,กาญจนา,men.png,กฤษณะ,men.png,กฤษณะ,10,50,100,27,27,12,k,0.5976082000415772,None,,,,12,27,27,0,,,,,26.70206560008228,,,,,,,,,26.69340500002727,26.70206560008228,26.70206560008228,26.70206560008228,26.70206560008228,27.314905400038697,k,0.5976082000415772,None,,,,,,,,,,,,,,,,,,,,,,,test1,002,2025-09-26_09h34.47.089,Priming_gender,,2025.1.1,60.357315272795596,2025-09-26 09h34.59.449542 +0700,
กฤษณะ,กาญจนา,men.png,กฤษณะ,men.png,กฤษณะ,10,50,100,28,28,13,k,0.4602974000154063,None,,,,13,28,28,0,,,,,27.352442800067365,,,,,,,,,27.34398470004089,27.352442800067365,27.352442800067365,27.352442800067365,27.352442800067365,27.814548000111245,k,0.4602974000154063,None,,,,,,,,,,,,,,,,,,,,,,,test1,002,2025-09-26_09h34.47.089,Priming_gender,,2025.1.1,60.357315272795596,2025-09-26 09h34.59.449542 +0700,
กฤษณะ,กาญจนา,men.png,กฤษณะ,men.png,กฤษณะ,10,50,100,29,29,14,k,0.6022718000458553,None,,,,14,29,29,0,,,,,27.84940530010499,,,,,,,,,27.841907900059596,27.84940530010499,27.84940530010499,27.84940530010499,27.84940530010499,28.464613900054246,k,0.6022718000458553,None,,,,,,,,,,,,,,,,,,,,,,,test1,002,2025-09-26_09h34.47.089,Priming_gender,,2025.1.1,60.357315272795596,2025-09-26 09h34.59.449542 +0700,
กฤษณะ,กาญจนา,men.png,กฤษณะ,men.png,กฤษณะ,10,50,100,30,30,15,k,0.6049229999771342,None,,,,15,30,30,0,,,,,28.503441600012593,,,,,,,,,28.495046800002456,28.503441600012593,28.503441600012593,28.503441600012593,28.503441600012593,29.114929700037464,k,0.6049229999771342,None,,,,,,,,,,,,,,,,,,,,,,,test1,002,2025-09-26_09h34.47.089,Priming_gender,,2025.1.1,60.357315272795596,2025-09-26 09h34.59.449542 +0700,
กฤษณะ,กาญจนา,men.png,กฤษณะ,men.png,กฤษณะ,10,50,100,31,31,16,k,0.7412269000196829,None,,,,16,31,31,0,,,,,29.151285200030543,,,,,,,,,29.142796500003897,29.151285200030543,29.151285200030543,29.151285200030543,29.151285200030543,29.898477800074033,k,0.7412269000196829,None,,,,,,,,,,,,,,,,,,,,,,,test1,002,2025-09-26_09h34.47.089,Priming_gender,,2025.1.1,60.357315272795596,2025-09-26 09h34.59.449542 +0700,
นเรศ,พิมพ์ใจ,women.png,นเรศ,men.png,นเรศ,10,51,101,32,32,15,j,1.5245102000189945,None,,,,15,32,32,1,,,,,29.936012700083666,,,,,,,,,29.927111000055447,29.936012700083666,29.936012700083666,29.936012700083666,29.936012700083666,31.464395400020294,j,1.5245102000189945,None,,,,,,,,,,,,,,,,,,,,,,,test1,002,2025-09-26_09h34.47.089,Priming_gender,,2025.1.1,60.357315272795596,2025-09-26 09h34.59.449542 +0700,
กฤษณะ,กาญจนา,men.png,กฤษณะ,men.png,กฤษณะ,10,50,100,33,33,17,k,1.2865916000446305,None,,,,17,33,33,0,,,,,31.50177570001688,,,,,,,,,31.493084700079635,31.50177570001688,31.50177570001688,31.50177570001688,31.50177570001688,32.79845170001499,k,1.2865916000446305,None,,,,,,,,,,,,,,,,,,,,,,,test1,002,2025-09-26_09h34.47.089,Priming_gender,,2025.1.1,60.357315272795596,2025-09-26 09h34.59.449542 +0700,
นเรศ,พิมพ์ใจ,women.png,นเรศ,men.png,นเรศ,10,51,101,34,34,16,j,0.9589152000844479,None,,,,16,34,34,1,,,,,32.83736260002479,,,,,,,,,32.82719150010962,32.83736260002479,32.83736260002479,32.83736260002479,32.83736260002479,33.798016800079495,j,0.9589152000844479,None,,,,,,,,,,,,,,,,,,,,,,,test1,002,2025-09-26_09h34.47.089,Priming_gender,,2025.1.1,60.357315272795596,2025-09-26 09h34.59.449542 +0700,
นเรศ,พิมพ์ใจ,women.png,นเรศ,men.png,นเรศ,10,51,101,35,35,17,j,0.48981800000183284,None,,,,17,35,35,1,,,,,33.83412270003464,,,,,,,,,33.826393000083044,33.83412270003464,33.83412270003464,33.83412270003464,33.83412270003464,34.331268200068735,j,0.48981800000183284,None,,,,,,,,,,,,,,,,,,,,,,,test1,002,2025-09-26_09h34.47.089,Priming_gender,,2025.1.1,60.357315272795596,2025-09-26 09h34.59.449542 +0700,
นเรศ,พิมพ์ใจ,women.png,นเรศ,men.png,นเรศ,10,51,101,36,36,18,j,1.126515300013125,None,,,,18,36,36,1,,,,,34.365505300113,,,,,,,,,34.35813310008962,34.365505300113,34.365505300113,34.365505300113,34.365505300113,35.49777850008104,j,1.126515300013125,None,,,,,,,,,,,,,,,,,,,,,,,test1,002,2025-09-26_09h34.47.089,Priming_gender,,2025.1.1,60.357315272795596,2025-09-26 09h34.59.449542 +0700,
กฤษณะ,กาญจนา,men.png,กฤษณะ,men.png,กฤษณะ,10,50,100,37,37,18,k,0.6590922999894246,None,,,,18,37,37,0,,,,,35.53730200009886,,,,,,,,,35.527820000075735,35.53730200009886,35.53730200009886,35.53730200009886,35.53730200009886,36.19796950009186,k,0.6590922999894246,None,,,,,,,,,,,,,,,,,,,,,,,test1,002,2025-09-26_09h34.47.089,Priming_gender,,2025.1.1,60.357315272795596,2025-09-26 09h34.59.449542 +0700,
นเรศ,พิมพ์ใจ,women.png,นเรศ,men.png,นเรศ,10,51,101,38,38,19,j,0.6465947000542656,None,,,,19,38,38,1,,,,,36.237254700041376,,,,,,,,,36.22826310002711,36.237254700041376,36.237254700041376,36.237254700041376,36.237254700041376,36.8976334000472,j,0.6465947000542656,None,,,,,,,,,,,,,,,,,,,,,,,test1,002,2025-09-26_09h34.47.089,Priming_gender,,2025.1.1,60.357315272795596,2025-09-26 09h34.59.449542 +0700,
กฤษณะ,กาญจนา,men.png,กฤษณะ,men.png,กฤษณะ,10,50,100,39,39,19,k,0.6383247000630945,None,,,,19,39,39,0,,,,,36.93357230001129,,,,,,,,,36.92542860005051,36.93357230001129,36.93357230001129,36.93357230001129,36.93357230001129,37.58118550002109,k,0.6383247000630945,None,,,,,,,,,,,,,,,,,,,,,,,test1,002,2025-09-26_09h34.47.089,Priming_gender,,2025.1.1,60.357315272795596,2025-09-26 09h34.59.449542 +0700,
,,,,,,,,,,,,,,,,,,,,,,,,,,,,,,,,,,,,,,,,,,,,37.581323600024916,37.59872810007073,37.59872810007073,40.53252680005971,space,2.9176390999928117,None,,,,,,,,,,,,,,,,test1,002,2025-09-26_09h34.47.089,Priming_gender,,2025.1.1,60.357315272795596,2025-09-26 09h34.59.449542 +0700,
ปริญญา,อาภรณ์,None,ปริญญา,men.png,ปริญญา,10,55,105,0,0,0,,,,k,4.794636100064963,None,,,,,0,0,0,5,40.60125320008956,,,,,,,,,,,,,,,,,,,,,,,,,40.582524400088005,40.60125320008956,40.60125320008956,40.60125320008956,40.60125320008956,40.60125320008956,40.60125320008956,40.847275600070134,40.91347350005526,45.39764690003358,k,4.794636100064963,None,,,test1,002,2025-09-26_09h34.47.089,Priming_gender,,2025.1.1,60.357315272795596,2025-09-26 09h34.59.449542 +0700,
วรพล,วรรณา,None,วรพล,men.png,วรพล,10,57,107,1,1,0,,,,k,0.8575528999790549,None,,,,,0,1,1,7,45.450129300006665,,,,,,,,,,,,,,,,,,,,,,,,,45.43482650001533,45.450129300006665,45.450129300006665,45.450129300006665,45.450129300006665,45.450129300006665,45.450129300006665,45.71407710004132,45.76370880007744,46.31358600000385,k,0.8575528999790549,None,,,test1,002,2025-09-26_09h34.47.089,Priming_gender,,2025.1.1,60.357315272795596,2025-09-26 09h34.59.449542 +0700,
None,None,None,จิตติมา,men.png,จิตติมา,10,66,116,2,2,0,,,,k,1.5591016999678686,None,,,,,0,2,2,16,46.36460630001966,,,,,,,,,,,,,,,,,,,,,,,,,46.353428400005214,46.36460630001966,46.36460630001966,46.36460630001966,46.36460630001966,46.36460630001966,46.36460630001966,46.61435160005931,46.663840000052005,47.93008550000377,k,1.5591016999678686,None,,,test1,002,2025-09-26_09h34.47.089,Priming_gender,,2025.1.1,60.357315272795596,2025-09-26 09h34.59.449542 +0700,
อรรถพล,สุพัตรา,None,อรรถพล,men.png,อรรถพล,10,53,103,3,3,0,,,,k,0.9864196999697015,None,,,,,0,3,3,3,47.97737259999849,,,,,,,,,,,,,,,,,,,,,,,,,47.964790800004266,47.97737259999849,47.97737259999849,47.97737259999849,47.97737259999849,47.97737259999849,47.97737259999849,48.23020180000458,48.27965900010895,48.981367900036275,k,0.9864196999697015,None,,,test1,002,2025-09-26_09h34.47.089,Priming_gender,,2025.1.1,60.357315272795596,2025-09-26 09h34.59.449542 +0700,
None,None,None,ปัทมา,men.png,ปัทมา,10,69,119,4,4,0,,,,k,1.4400996000040323,None,,,,,0,4,4,19,49.02792370005045,,,,,,,,,,,,,,,,,,,,,,,,,49.015992900007404,49.02792370005045,49.02792370005045,49.02792370005045,49.02792370005045,49.02792370005045,49.02792370005045,49.29673190007452,49.33028140000533,50.47971070010681,k,1.4400996000040323,None,,,test1,002,2025-09-26_09h34.47.089,Priming_gender,,2025.1.1,60.357315272795596,2025-09-26 09h34.59.449542 +0700,
None,None,None,None,women.png,ศักดิ์สิทธิ์,11,58,128,5,5,0,,,,j,1.3731032999930903,None,,,,,0,5,5,28,50.53484550002031,,,,,,,,,,,,,,,,,,,,,,,,,50.521787700010464,50.53484550002031,50.53484550002031,50.53484550002031,50.53484550002031,50.53484550002031,50.53484550002031,50.77990520000458,50.847091800067574,51.91360060009174,j,1.3731032999930903,None,,,test1,002,2025-09-26_09h34.47.089,Priming_gender,,2025.1.1,60.357315272795596,2025-09-26 09h34.59.449542 +0700,
None,None,None,None,women.png,วาสนา,11,62,132,6,6,0,,,,j,0.876484299893491,None,,,,,0,6,6,32,51.959419700084254,,,,,,,,,,,,,,,,,,,,,,,,,51.94591310003307,51.959419700084254,51.959419700084254,51.959419700084254,51.959419700084254,51.959419700084254,51.959419700084254,52.231133600114845,52.26335360005032,52.847302700043656,j,0.876484299893491,None,,,test1,002,2025-09-26_09h34.47.089,Priming_gender,,2025.1.1,60.357315272795596,2025-09-26 09h34.59.449542 +0700,
None,None,None,สุพัตรา,men.png,สุพัตรา,10,63,113,7,7,0,,,,k,0.8740675000008196,None,,,,,0,7,7,13,52.89049620006699,,,,,,,,,,,,,,,,,,,,,,,,,52.879168200073764,52.89049620006699,52.89049620006699,52.89049620006699,52.89049620006699,52.89049620006699,52.89049620006699,53.16256080009043,53.19605400005821,53.77979400008917,k,0.8740675000008196,None,,,test1,002,2025-09-26_09h34.47.089,Priming_gender,,2025.1.1,60.357315272795596,2025-09-26 09h34.59.449542 +0700,
None,None,None,None,women.png,นเรศ,11,51,121,8,8,0,,,,j,1.4937431999715045,None,,,,,0,8,8,21,53.821661700028926,,,,,,,,,,,,,,,,,,,,,,,,,53.81143990007695,53.821661700028926,53.821661700028926,53.821661700028926,53.821661700028926,53.821661700028926,53.821661700028926,54.095792500069365,54.12997420004103,55.329641700023785,j,1.4937431999715045,None,,,test1,002,2025-09-26_09h34.47.089,Priming_gender,,2025.1.1,60.357315272795596,2025-09-26 09h34.59.449542 +0700,
None,None,None,สุนิสา,men.png,สุนิสา,10,68,118,9,9,0,,,,k,1.0154764000326395,None,,,,,0,9,9,18,55.37226430000737,,,,,,,,,,,,,,,,,,,,,,,,,55.35924010002054,55.37226430000737,55.37226430000737,55.37226430000737,55.37226430000737,55.37226430000737,55.37226430000737,55.62964160006959,55.679751500021666,56.396823000046425,k,1.0154764000326395,None,,,test1,002,2025-09-26_09h34.47.089,Priming_gender,,2025.1.1,60.357315272795596,2025-09-26 09h34.59.449542 +0700,
None,None,None,อาภรณ์,men.png,อาภรณ์,10,65,115,10,10,0,,,,k,1.1414115999359637,None,,,,,0,10,10,15,56.446337900008075,,,,,,,,,,,,,,,,,,,,,,,,,56.43416740000248,56.446337900008075,56.446337900008075,56.446337900008075,56.446337900008075,56.446337900008075,56.446337900008075,56.6963451000629,56.746063100057654,57.596250700065866,k,1.1414115999359637,None,,,test1,002,2025-09-26_09h34.47.089,Priming_gender,,2025.1.1,60.357315272795596,2025-09-26 09h34.59.449542 +0700,
ศักดิ์สิทธิ์,สุนิสา,None,ศักดิ์สิทธิ์,men.png,ศักดิ์สิทธิ์,10,58,108,11,11,0,,,,k,0.960101299919188,None,,,,,0,11,11,8,57.63568740000483,,,,,,,,,,,,,,,,,,,,,,,,,57.624438200029545,57.63568740000483,57.63568740000483,57.63568740000483,57.63568740000483,57.63568740000483,57.63568740000483,57.913092000060715,57.94631900009699,58.61265170003753,k,0.960101299919188,None,,,test1,002,2025-09-26_09h34.47.089,Priming_gender,,2025.1.1,60.357315272795596,2025-09-26 09h34.59.449542 +0700,
None,None,None,None,women.png,กาญจนา,11,60,130,12,12,0,,,,j,1.2398900999687612,None,,,,,0,12,12,30,58.6527352000121,,,,,,,,,,,,,,,,,,,,,,,,,58.641578900045715,58.6527352000121,58.6527352000121,58.6527352000121,58.6527352000121,58.6527352000121,58.6527352000121,58.91392730001826,58.96422900003381,59.896881700027734,j,1.2398900999687612,None,,,test1,002,2025-09-26_09h34.47.089,Priming_gender,,2025.1.1,60.357315272795596,2025-09-26 09h34.59.449542 +0700,
None,None,None,ศิริพร,men.png,ศิริพร,10,64,114,13,13,0,,,,k,2.3387411000439897,None,,,,,0,13,13,14,59.93735780008137,,,,,,,,,,,,,,,,,,,,,,,,,59.924930500099435,59.93735780008137,59.93735780008137,59.93735780008137,59.93735780008137,59.93735780008137,59.93735780008137,60.21262010000646,60.24543490004726,62.27920330001507,k,2.3387411000439897,None,,,test1,002,2025-09-26_09h34.47.089,Priming_gender,,2025.1.1,60.357315272795596,2025-09-26 09h34.59.449542 +0700,
None,None,None,วาสนา,men.png,วาสนา,10,62,112,14,14,0,,,,k,1.0591627999674529,None,,,,,0,14,14,12,62.32046220009215,,,,,,,,,,,,,,,,,,,,,,,,,62.30926810007077,62.32046220009215,62.32046220009215,62.32046220009215,62.32046220009215,62.32046220009215,62.32046220009215,62.58059850009158,62.62970950000454,63.395570900058374,k,1.0591627999674529,None,,,test1,002,2025-09-26_09h34.47.089,Priming_gender,,2025.1.1,60.357315272795596,2025-09-26 09h34.59.449542 +0700,
None,None,None,None,women.png,สุนิสา,11,68,138,15,15,0,,,,j,2.4692918000509962,None,,,,,0,15,15,38,63.43983070005197,,,,,,,,,,,,,,,,,,,,,,,,,63.42697110003792,63.43983070005197,63.43983070005197,63.43983070005197,63.43983070005197,63.43983070005197,63.43983070005197,63.695717000053264,63.74564320000354,65.91227870003786,j,2.4692918000509962,None,,,test1,002,2025-09-26_09h34.47.089,Priming_gender,,2025.1.1,60.357315272795596,2025-09-26 09h34.59.449542 +0700,
None,None,None,None,women.png,ชัยวัฒน์,11,54,124,16,16,0,,,,j,1.3546911999583244,None,,,,,0,16,16,24,65.96065600006841,,,,,,,,,,,,,,,,,,,,,,,,,65.9485880000284,65.96065600006841,65.96065600006841,65.96065600006841,65.96065600006841,65.96065600006841,65.96065600006841,66.21310550009366,66.2634225001093,67.32882730010897,j,1.3546911999583244,None,,,test1,002,2025-09-26_09h34.47.089,Priming_gender,,2025.1.1,60.357315272795596,2025-09-26 09h34.59.449542 +0700,
ธนพล,วาสนา,None,ธนพล,men.png,ธนพล,10,52,102,17,17,0,,,,k,1.659396200091578,None,,,,,0,17,17,2,67.36866520007607,,,,,,,,,,,,,,,,,,,,,,,,,67.35730830009561,67.36866520007607,67.36866520007607,67.36866520007607,67.36866520007607,67.36866520007607,67.36866520007607,67.64726790005807,67.68003530008718,69.03007090010215,k,1.659396200091578,None,,,test1,002,2025-09-26_09h34.47.089,Priming_gender,,2025.1.1,60.357315272795596,2025-09-26 09h34.59.449542 +0700,
None,None,None,None,women.png,พิสิฐ,11,59,129,18,18,0,,,,j,1.855328100034967,None,,,,,0,18,18,29,69.076263200026,,,,,,,,,,,,,,,,,,,,,,,,,69.06299810006749,69.076263200026,69.076263200026,69.076263200026,69.076263200026,69.076263200026,69.076263200026,69.32969969999976,69.38003200001549,70.9454036001116,j,1.855328100034967,None,,,test1,002,2025-09-26_09h34.47.089,Priming_gender,,2025.1.1,60.357315272795596,2025-09-26 09h34.59.449542 +0700,
กฤษณะ,กาญจนา,men.png,กฤษณะ,men.png,กฤษณะ,10,50,100,19,19,0,,,,k,0.8336299000075087,None,,,,,0,19,19,0,70.99473800009582,,,,,,,,,,,,,,,,,,,,,,,,,70.98187360004522,70.99473800009582,70.99473800009582,70.99473800009582,70.99473800009582,70.99473800009582,70.99473800009582,71.24706910003442,71.29721790004987,71.84492890001275,k,0.8336299000075087,None,,,test1,002,2025-09-26_09h34.47.089,Priming_gender,,2025.1.1,60.357315272795596,2025-09-26 09h34.59.449542 +0700,
None,None,None,None,women.png,ภูมิพัฒน์,11,56,126,20,20,0,,,,j,0.9310843999264762,None,,,,,0,20,20,26,71.88855750008952,,,,,,,,,,,,,,,,,,,,,,,,,71.87724670011085,71.88855750008952,71.88855750008952,71.88855750008952,71.88855750008952,71.88855750008952,71.88855750008952,72.1469664000906,72.1954155000858,72.82912360003684,j,0.9310843999264762,None,,,test1,002,2025-09-26_09h34.47.089,Priming_gender,,2025.1.1,60.357315272795596,2025-09-26 09h34.59.449542 +0700,
None,None,None,กาญจนา,men.png,กาญจนา,10,60,110,21,21,0,,,,k,0.9611462000757456,None,,,,,0,21,21,10,72.86681530007627,,,,,,,,,,,,,,,,,,,,,,,,,72.85681870009284,72.86681530007627,72.86681530007627,72.86681530007627,72.86681530007627,72.86681530007627,72.86681530007627,73.14552500005811,73.17820610001218,73.82974060007837,k,0.9611462000757456,None,,,test1,002,2025-09-26_09h34.47.089,Priming_gender,,2025.1.1,60.357315272795596,2025-09-26 09h34.59.449542 +0700,
None,None,None,None,women.png,อรรถพล,11,53,123,22,22,0,,,,j,1.0632317999843508,None,,,,,0,22,22,23,73.86806690006051,,,,,,,,,,,,,,,,,,,,,,,,,73.85775890003424,73.86806690006051,73.86806690006051,73.86806690006051,73.86806690006051,73.86806690006051,73.86806690006051,74.14531680010259,74.17785080010071,74.94478890008759,j,1.0632317999843508,None,,,test1,002,2025-09-26_09h34.47.089,Priming_gender,,2025.1.1,60.357315272795596,2025-09-26 09h34.59.449542 +0700,
None,None,None,วรรณา,men.png,วรรณา,10,67,117,23,23,0,,,,k,1.33739339991007,None,,,,,0,23,23,17,74.98676060000435,,,,,,,,,,,,,,,,,,,,,,,,,74.9745856000809,74.98676060000435,74.98676060000435,74.98676060000435,74.98676060000435,74.98676060000435,74.98676060000435,75.24541710002813,75.2953713000752,76.32835650001653,k,1.33739339991007,None,,,test1,002,2025-09-26_09h34.47.089,Priming_gender,,2025.1.1,60.357315272795596,2025-09-26 09h34.59.449542 +0700,
ภูมิพัฒน์,จิตติมา,None,ภูมิพัฒน์,men.png,ภูมิพัฒน์,10,56,106,24,24,0,,,,k,2.051431200001389,None,,,,,0,24,24,6,76.3685360000236,,,,,,,,,,,,,,,,,,,,,,,,,76.35697800002526,76.3685360000236,76.3685360000236,76.3685360000236,76.3685360000236,76.3685360000236,76.3685360000236,76.64424740010872,76.67832960002124,78.42926410003565,k,2.051431200001389,None,,,test1,002,2025-09-26_09h34.47.089,Priming_gender,,2025.1.1,60.357315272795596,2025-09-26 09h34.59.449542 +0700,
None,None,None,None,women.png,ปริญญา,11,55,125,25,25,0,,,,j,1.3099701999453828,None,,,,,0,25,25,25,78.46951140009332,,,,,,,,,,,,,,,,,,,,,,,,,78.45811840007082,78.46951140009332,78.46951140009332,78.46951140009332,78.46951140009332,78.46951140009332,78.46951140009332,78.74535160011146,78.77848190010991,79.79450600000564,j,1.3099701999453828,None,,,test1,002,2025-09-26_09h34.47.089,Priming_gender,,2025.1.1,60.357315272795596,2025-09-26 09h34.59.449542 +0700,
None,None,None,None,women.png,ธนพล,11,52,122,26,26,0,,,,j,1.063238599919714,None,,,,,0,26,26,22,79.83594680007081,,,,,,,,,,,,,,,,,,,,,,,,,79.82420290005393,79.83594680007081,79.83594680007081,79.83594680007081,79.83594680007081,79.83594680007081,79.83594680007081,80.09524560009595,80.14513560000341,80.91209440003149,j,1.063238599919714,None,,,test1,002,2025-09-26_09h34.47.089,Priming_gender,,2025.1.1,60.357315272795596,2025-09-26 09h34.59.449542 +0700,
ชัยวัฒน์,ศิริพร,None,ชัยวัฒน์,men.png,ชัยวัฒน์,10,54,104,27,27,0,,,,k,1.545657099923119,None,,,,,0,27,27,4,80.9543669000268,,,,,,,,,,,,,,,,,,,,,,,,,80.94096610008273,80.9543669000268,80.9543669000268,80.9543669000268,80.9543669000268,80.9543669000268,80.9543669000268,81.2295614000177,81.26269900007173,82.51155300007667,k,1.545657099923119,None,,,test1,002,2025-09-26_09h34.47.089,Priming_gender,,2025.1.1,60.357315272795596,2025-09-26 09h34.59.449542 +0700,
นเรศ,พิมพ์ใจ,women.png,นเรศ,men.png,นเรศ,10,51,101,28,28,0,,,,k,2.1551025999942794,None,,,,,0,28,28,1,82.55293400003575,,,,,,,,,,,,,,,,,,,,,,,,,82.54082680004649,82.55293400003575,82.55293400003575,82.55293400003575,82.55293400003575,82.55293400003575,82.55293400003575,82.81157890008762,82.86147160001565,84.71111810009461,k,2.1551025999942794,None,,,test1,002,2025-09-26_09h34.47.089,Priming_gender,,2025.1.1,60.357315272795596,2025-09-26 09h34.59.449542 +0700,
None,None,None,None,women.png,วรรณา,11,67,137,29,29,0,,,,j,0.9142315000062808,None,,,,,0,29,29,37,84.75347000011243,,,,,,,,,,,,,,,,,,,,,,,,,84.74251190002542,84.75347000011243,84.75347000011243,84.75347000011243,84.75347000011243,84.75347000011243,84.75347000011243,85.02805830002762,85.06051880004816,85.67823300010059,j,0.9142315000062808,None,,,test1,002,2025-09-26_09h34.47.089,Priming_gender,,2025.1.1,60.357315272795596,2025-09-26 09h34.59.449542 +0700,
None,None,None,None,women.png,กฤษณะ,11,50,120,30,30,0,,,,j,1.1330837999703363,None,,,,,0,30,30,20,85.71893460000865,,,,,,,,,,,,,,,,,,,,,,,,,85.70747510006186,85.71893460000865,85.71893460000865,85.71893460000865,85.71893460000865,85.71893460000865,85.71893460000865,85.9952537000645,86.02846560010221,86.86167710006703,j,1.1330837999703363,None,,,test1,002,2025-09-26_09h34.47.089,Priming_gender,,2025.1.1,60.357315272795596,2025-09-26 09h34.59.449542 +0700,
None,None,None,None,women.png,พิมพ์ใจ,11,61,131,31,31,0,,,,j,0.9990949000930414,None,,,,,0,31,31,31,86.90888830006588,,,,,,,,,,,,,,,,,,,,,,,,,86.89595180004835,86.90888830006588,86.90888830006588,86.90888830006588,86.90888830006588,86.90888830006588,86.90888830006588,87.177759500104,87.21082170004956,87.91089580010157,j,0.9990949000930414,None,,,test1,002,2025-09-26_09h34.47.089,Priming_gender,,2025.1.1,60.357315272795596,2025-09-26 09h34.59.449542 +0700,
None,None,None,พิมพ์ใจ,men.png,พิมพ์ใจ,10,61,111,32,32,0,,,,k,0.9798313000937924,None,,,,,0,32,32,11,87.95189180003945,,,,,,,,,,,,,,,,,,,,,,,,,87.94009460008238,87.95189180003945,87.95189180003945,87.95189180003945,87.95189180003945,87.95189180003945,87.95189180003945,88.21198740007821,88.26237080001738,88.9448450000491,k,0.9798313000937924,None,,,test1,002,2025-09-26_09h34.47.089,Priming_gender,,2025.1.1,60.357315272795596,2025-09-26 09h34.59.449542 +0700,
None,None,None,None,women.png,อาภรณ์,11,65,135,33,33,0,,,,j,1.0486736000748351,None,,,,,0,33,33,35,88.9866953000892,,,,,,,,,,,,,,,,,,,,,,,,,88.97528500005137,88.9866953000892,88.9866953000892,88.9866953000892,88.9866953000892,88.9866953000892,88.9866953000892,89.26011450006627,89.29422860010527,90.04494630009867,j,1.0486736000748351,None,,,test1,002,2025-09-26_09h34.47.089,Priming_gender,,2025.1.1,60.357315272795596,2025-09-26 09h34.59.449542 +0700,
None,None,None,None,women.png,วรพล,11,57,127,34,34,0,,,,j,0.9590139000210911,None,,,,,0,34,34,27,90.08519610005897,,,,,,,,,,,,,,,,,,,,,,,,,90.07427730003837,90.08519610005897,90.08519610005897,90.08519610005897,90.08519610005897,90.08519610005897,90.08519610005897,90.34578950004652,90.39383870002348,91.06094340002164,j,0.9590139000210911,None,,,test1,002,2025-09-26_09h34.47.089,Priming_gender,,2025.1.1,60.357315272795596,2025-09-26 09h34.59.449542 +0700,
พิสิฐ,ปัทมา,None,พิสิฐ,men.png,พิสิฐ,10,59,109,35,35,0,,,,k,1.5269604999339208,None,,,,,0,35,35,9,91.10097050003242,,,,,,,,,,,,,,,,,,,,,,,,,91.09131000004709,91.10097050003242,91.10097050003242,91.10097050003242,91.10097050003242,91.10097050003242,91.10097050003242,91.37733690009918,91.41096160002053,92.64391230000183,k,1.5269604999339208,None,,,test1,002,2025-09-26_09h34.47.089,Priming_gender,,2025.1.1,60.357315272795596,2025-09-26 09h34.59.449542 +0700,
None,None,None,None,women.png,สุพัตรา,11,63,133,36,36,0,,,,j,0.9825386999873444,None,,,,,0,36,36,33,92.68533320003189,,,,,,,,,,,,,,,,,,,,,,,,,92.67374280001968,92.68533320003189,92.68533320003189,92.68533320003189,92.68533320003189,92.68533320003189,92.68533320003189,92.96106510004029,92.99387370003387,93.67762800003402,j,0.9825386999873444,None,,,test1,002,2025-09-26_09h34.47.089,Priming_gender,,2025.1.1,60.357315272795596,2025-09-26 09h34.59.449542 +0700,
None,None,None,None,women.png,ปัทมา,11,69,139,37,37,0,,,,j,0.7183142000576481,None,,,,,0,37,37,39,93.71775980002712,,,,,,,,,,,,,,,,,,,,,,,,,93.70626970008016,93.71775980002712,93.71775980002712,93.71775980002712,93.71775980002712,93.71775980002712,93.71775980002712,93.97879459999967,94.02788850001525,94.44437130005099,j,0.7183142000576481,None,,,test1,002,2025-09-26_09h34.47.089,Priming_gender,,2025.1.1,60.357315272795596,2025-09-26 09h34.59.449542 +0700,
None,None,None,None,women.png,ศิริพร,11,64,134,38,38,0,,,,j,0.6240307000698522,None,,,,,0,38,38,34,94.48363780009095,,,,,,,,,,,,,,,,,,,,,,,,,94.47256620007101,94.48363780009095,94.48363780009095,94.48363780009095,94.48363780009095,94.48363780009095,94.48363780009095,94.74549090000801,94.79383280000184,95.11244730011094,j,0.6240307000698522,None,,,test1,002,2025-09-26_09h34.47.089,Priming_gender,,2025.1.1,60.357315272795596,2025-09-26 09h34.59.449542 +0700,
None,None,None,None,women.png,จิตติมา,11,66,136,39,39,0,,,,j,0.6435933999018744,None,,,,,0,39,39,36,95.15181150007993,,,,,,,,,,,,,,,,,,,,,,,,,95.14117810002062,95.15181150007993,95.15181150007993,95.15181150007993,95.15181150007993,95.15181150007993,95.15181150007993,95.42704230011441,95.46080670005176,95.81032240006607,j,0.6435933999018744,None,,,test1,002,2025-09-26_09h34.47.089,Priming_gender,,2025.1.1,60.357315272795596,2025-09-26 09h34.59.449542 +0700,
,,,,,,,,,,,,,,,,,,,,,,,,,,,,,,,,,,,,,,,,,,,,,,,,,,,,,,,,,,,,,,,,95.9243091000244,95.92448410007637,test1,002,2025-09-26_09h34.47.089,Priming_gender,,2025.1.1,60.357315272795596,2025-09-26 09h34.59.449542 +0700,
