Male,Female,Image,Name,ImagePriming,NamePriming,ImageTrig,NameTrig,Trig,thisN,thisTrialN,thisRepN,key_resp.keys,key_resp.rt,key_resp.duration,key_resp_3.keys,key_resp_3.rt,key_resp_3.duration,training.thisRepN,training.thisTrialN,training.thisN,training.thisIndex,priming.thisRepN,priming.thisTrialN,priming.thisN,priming.thisIndex,thisRow.t,notes,training_Instruction.started,instruction_slide.started,instruction_continue.started,training_Instruction.stopped,instruction_continue.keys,instruction_continue.rt,instruction_continue.duration,training_block.started,MAN.started,WOMAN.started,pic.started,key_resp.started,training_block.stopped,training.key_resp.keys,training.key_resp.rt,training.key_resp.duration,priming_instruction.started,instruction_slide_2.started,instruction_continue_2.started,priming_instruction.stopped,instruction_continue_2.keys,instruction_continue_2.rt,instruction_continue_2.duration,priming_block.started,MAN_3.started,MAN_3_desc.started,WOMAN_3.started,WOMAN_3_desc.started,name_2.started,key_resp_3.started,pic_2.started,name_2.stopped,priming_block.stopped,priming.key_resp_3.keys,priming.key_resp_3.rt,priming.key_resp_3.duration,Ending.started,Ending.stopped,participant,session,date,expName,expVersion,psychopyVersion,frameRate,expStart,
,,,,,,,,,,,,,,,,,,,,,,,,,,,,0.007925699930638075,0.020800599944777787,0.020800599944777787,1.4102088999934494,space,1.383755199960433,None,,,,,,,,,,,,,,,,,,,,,,,,,,,,,,,,test1,005,2025-09-26_09h40.53.966,Priming_gender,,2025.1.1,60.593207518139366,2025-09-26 09h41.02.673604 +0700,
นเรศ,พิมพ์ใจ,women.png,นเรศ,men.png,นเรศ,10,51,101,0,0,0,j,0.5181042000185698,None,,,,0,0,0,1,,,,,1.4618897999171168,,,,,,,,,1.4494899999117479,1.4618897999171168,1.4618897999171168,1.4618897999171168,1.4618897999171168,1.9864120999118313,j,0.5181042000185698,None,,,,,,,,,,,,,,,,,,,,,,,test1,005,2025-09-26_09h40.53.966,Priming_gender,,2025.1.1,60.593207518139366,2025-09-26 09h41.02.673604 +0700,
นเรศ,พิมพ์ใจ,women.png,นเรศ,men.png,นเรศ,10,51,101,1,1,1,j,0.48617289995308965,None,,,,1,1,1,1,,,,,2.0215148999122903,,,,,,,,,2.013834399986081,2.0215148999122903,2.0215148999122903,2.0215148999122903,2.0215148999122903,2.5195299999322742,j,0.48617289995308965,None,,,,,,,,,,,,,,,,,,,,,,,test1,005,2025-09-26_09h40.53.966,Priming_gender,,2025.1.1,60.593207518139366,2025-09-26 09h41.02.673604 +0700,
นเรศ,พิมพ์ใจ,women.png,นเรศ,men.png,นเรศ,10,51,101,2,2,2,j,0.769558500032872,None,,,,2,2,2,1,,,,,2.55438589991536,,,,,,,,,2.5463767999317497,2.55438589991536,2.55438589991536,2.55438589991536,2.55438589991536,3.3358271999750286,j,0.769558500032872,None,,,,,,,,,,,,,,,,,,,,,,,test1,005,2025-09-26_09h40.53.966,Priming_gender,,2025.1.1,60.593207518139366,2025-09-26 09h41.02.673604 +0700,
กฤษณะ,กาญจนา,men.png,กฤษณะ,men.png,กฤษณะ,10,50,100,3,3,0,k,0.6886076000519097,None,,,,0,3,3,0,,,,,3.3708349999506027,,,,,,,,,3.3632599998963997,3.3708349999506027,3.3708349999506027,3.3708349999506027,3.3708349999506027,4.069214699906297,k,0.6886076000519097,None,,,,,,,,,,,,,,,,,,,,,,,test1,005,2025-09-26_09h40.53.966,Priming_gender,,2025.1.1,60.593207518139366,2025-09-26 09h41.02.673604 +0700,
นเรศ,พิมพ์ใจ,women.png,นเรศ,men.png,นเรศ,10,51,101,4,4,3,j,0.5617947999853641,None,,,,3,4,4,1,,,,,4.105536899995059,,,,,,,,,4.097086099907756,4.105536899995059,4.105536899995059,4.105536899995059,4.105536899995059,4.669491899898276,j,0.5617947999853641,None,,,,,,,,,,,,,,,,,,,,,,,test1,005,2025-09-26_09h40.53.966,Priming_gender,,2025.1.1,60.593207518139366,2025-09-26 09h41.02.673604 +0700,
กฤษณะ,กาญจนา,men.png,กฤษณะ,men.png,กฤษณะ,10,50,100,5,5,1,k,0.6333268999587744,None,,,,1,5,5,0,,,,,4.706005399930291,,,,,,,,,4.697078499943018,4.706005399930291,4.706005399930291,4.706005399930291,4.706005399930291,5.352547199930996,k,0.6333268999587744,None,,,,,,,,,,,,,,,,,,,,,,,test1,005,2025-09-26_09h40.53.966,Priming_gender,,2025.1.1,60.593207518139366,2025-09-26 09h41.02.673604 +0700,
นเรศ,พิมพ์ใจ,women.png,นเรศ,men.png,นเรศ,10,51,101,6,6,4,j,0.54323840001598,None,,,,4,6,6,1,,,,,5.388527699979022,,,,,,,,,5.381077499943785,5.388527699979022,5.388527699979022,5.388527699979022,5.388527699979022,5.9365343999816105,j,0.54323840001598,None,,,,,,,,,,,,,,,,,,,,,,,test1,005,2025-09-26_09h40.53.966,Priming_gender,,2025.1.1,60.593207518139366,2025-09-26 09h41.02.673604 +0700,
กฤษณะ,กาญจนา,men.png,กฤษณะ,men.png,กฤษณะ,10,50,100,7,7,2,k,0.6002571999561042,None,,,,2,7,7,0,,,,,5.971044799895026,,,,,,,,,5.963572099921294,5.971044799895026,5.971044799895026,5.971044799895026,5.971044799895026,6.586030499893241,k,0.6002571999561042,None,,,,,,,,,,,,,,,,,,,,,,,test1,005,2025-09-26_09h40.53.966,Priming_gender,,2025.1.1,60.593207518139366,2025-09-26 09h41.02.673604 +0700,
กฤษณะ,กาญจนา,men.png,กฤษณะ,men.png,กฤษณะ,10,50,100,8,8,3,k,0.5420025000348687,None,,,,3,8,8,0,,,,,6.621617599972524,,,,,,,,,6.613685099990107,6.621617599972524,6.621617599972524,6.621617599972524,6.621617599972524,7.169039399945177,k,0.5420025000348687,None,,,,,,,,,,,,,,,,,,,,,,,test1,005,2025-09-26_09h40.53.966,Priming_gender,,2025.1.1,60.593207518139366,2025-09-26 09h41.02.673604 +0700,
กฤษณะ,กาญจนา,men.png,กฤษณะ,men.png,กฤษณะ,10,50,100,9,9,4,k,0.7879821999231353,None,,,,4,9,9,0,,,,,7.207589500001632,,,,,,,,,7.198076799977571,7.207589500001632,7.207589500001632,7.207589500001632,7.207589500001632,8.001958399894647,k,0.7879821999231353,None,,,,,,,,,,,,,,,,,,,,,,,test1,005,2025-09-26_09h40.53.966,Priming_gender,,2025.1.1,60.593207518139366,2025-09-26 09h41.02.673604 +0700,
กฤษณะ,กาญจนา,men.png,กฤษณะ,men.png,กฤษณะ,10,50,100,10,10,5,k,0.7119191000238061,None,,,,5,10,10,0,,,,,8.035726899979636,,,,,,,,,8.028545899898745,8.035726899979636,8.035726899979636,8.035726899979636,8.035726899979636,8.752552299993113,k,0.7119191000238061,None,,,,,,,,,,,,,,,,,,,,,,,test1,005,2025-09-26_09h40.53.966,Priming_gender,,2025.1.1,60.593207518139366,2025-09-26 09h41.02.673604 +0700,
กฤษณะ,กาญจนา,men.png,กฤษณะ,men.png,กฤษณะ,10,50,100,11,11,6,k,1.374906900105998,None,,,,6,11,11,0,,,,,8.79651399992872,,,,,,,,,8.787330499966629,8.79651399992872,8.79651399992872,8.79651399992872,8.79651399992872,10.18608079990372,k,1.374906900105998,None,,,,,,,,,,,,,,,,,,,,,,,test1,005,2025-09-26_09h40.53.966,Priming_gender,,2025.1.1,60.593207518139366,2025-09-26 09h41.02.673604 +0700,
นเรศ,พิมพ์ใจ,women.png,นเรศ,men.png,นเรศ,10,51,101,12,12,5,j,0.5907643999671564,None,,,,5,12,12,1,,,,,10.220927899936214,,,,,,,,,10.213116699946113,10.220927899936214,10.220927899936214,10.220927899936214,10.220927899936214,10.819051399943419,j,0.5907643999671564,None,,,,,,,,,,,,,,,,,,,,,,,test1,005,2025-09-26_09h40.53.966,Priming_gender,,2025.1.1,60.593207518139366,2025-09-26 09h41.02.673604 +0700,
นเรศ,พิมพ์ใจ,women.png,นเรศ,men.png,นเรศ,10,51,101,13,13,6,j,0.43669150001369417,None,,,,6,13,13,1,,,,,10.855212399968877,,,,,,,,,10.846867299987935,10.855212399968877,10.855212399968877,10.855212399968877,10.855212399968877,11.302356099942699,j,0.43669150001369417,None,,,,,,,,,,,,,,,,,,,,,,,test1,005,2025-09-26_09h40.53.966,Priming_gender,,2025.1.1,60.593207518139366,2025-09-26 09h41.02.673604 +0700,
นเรศ,พิมพ์ใจ,women.png,นเรศ,men.png,นเรศ,10,51,101,14,14,7,j,0.41673870000522584,None,,,,7,14,14,1,,,,,11.338529499946162,,,,,,,,,11.330543499905616,11.338529499946162,11.338529499946162,11.338529499946162,11.338529499946162,11.76882279990241,j,0.41673870000522584,None,,,,,,,,,,,,,,,,,,,,,,,test1,005,2025-09-26_09h40.53.966,Priming_gender,,2025.1.1,60.593207518139366,2025-09-26 09h41.02.673604 +0700,
กฤษณะ,กาญจนา,men.png,กฤษณะ,men.png,กฤษณะ,10,50,100,15,15,7,k,0.5901071999687701,None,,,,7,15,15,0,,,,,11.806045499979518,,,,,,,,,11.79823029995896,11.806045499979518,11.806045499979518,11.806045499979518,11.806045499979518,12.402565099997446,k,0.5901071999687701,None,,,,,,,,,,,,,,,,,,,,,,,test1,005,2025-09-26_09h40.53.966,Priming_gender,,2025.1.1,60.593207518139366,2025-09-26 09h41.02.673604 +0700,
กฤษณะ,กาญจนา,men.png,กฤษณะ,men.png,กฤษณะ,10,50,100,16,16,8,k,0.5825335000408813,None,,,,8,16,16,0,,,,,12.437004999956116,,,,,,,,,12.429338399902917,12.437004999956116,12.437004999956116,12.437004999956116,12.437004999956116,13.035518499906175,k,0.5825335000408813,None,,,,,,,,,,,,,,,,,,,,,,,test1,005,2025-09-26_09h40.53.966,Priming_gender,,2025.1.1,60.593207518139366,2025-09-26 09h41.02.673604 +0700,
นเรศ,พิมพ์ใจ,women.png,นเรศ,men.png,นเรศ,10,51,101,17,17,8,j,0.6210634000599384,None,,,,8,17,17,1,,,,,13.07071359991096,,,,,,,,,13.06306069996208,13.07071359991096,13.07071359991096,13.07071359991096,13.07071359991096,13.702800099970773,j,0.6210634000599384,None,,,,,,,,,,,,,,,,,,,,,,,test1,005,2025-09-26_09h40.53.966,Priming_gender,,2025.1.1,60.593207518139366,2025-09-26 09h41.02.673604 +0700,
กฤษณะ,กาญจนา,men.png,กฤษณะ,men.png,กฤษณะ,10,50,100,18,18,9,k,0.5604483999777585,None,,,,9,18,18,0,,,,,13.740686799981631,,,,,,,,,13.731187199940905,13.740686799981631,13.740686799981631,13.740686799981631,13.740686799981631,14.302604299969971,k,0.5604483999777585,None,,,,,,,,,,,,,,,,,,,,,,,test1,005,2025-09-26_09h40.53.966,Priming_gender,,2025.1.1,60.593207518139366,2025-09-26 09h41.02.673604 +0700,
กฤษณะ,กาญจนา,men.png,กฤษณะ,men.png,กฤษณะ,10,50,100,19,19,10,k,0.5061639999039471,None,,,,10,19,19,0,,,,,14.337299000006169,,,,,,,,,14.329377499991097,14.337299000006169,14.337299000006169,14.337299000006169,14.337299000006169,14.8524203998968,k,0.5061639999039471,None,,,,,,,,,,,,,,,,,,,,,,,test1,005,2025-09-26_09h40.53.966,Priming_gender,,2025.1.1,60.593207518139366,2025-09-26 09h41.02.673604 +0700,
กฤษณะ,กาญจนา,men.png,กฤษณะ,men.png,กฤษณะ,10,50,100,20,20,11,k,0.3379306000424549,None,,,,11,20,20,0,,,,,14.889810199965723,,,,,,,,,14.882232799893245,14.889810199965723,14.889810199965723,14.889810199965723,14.889810199965723,15.236047299928032,k,0.3379306000424549,None,,,,,,,,,,,,,,,,,,,,,,,test1,005,2025-09-26_09h40.53.966,Priming_gender,,2025.1.1,60.593207518139366,2025-09-26 09h41.02.673604 +0700,
กฤษณะ,กาญจนา,men.png,กฤษณะ,men.png,กฤษณะ,10,50,100,21,21,12,k,0.8166223999578506,None,,,,12,21,21,0,,,,,15.275321499910206,,,,,,,,,15.2654342999449,15.275321499910206,15.275321499910206,15.275321499910206,15.275321499910206,16.103240699972957,k,0.8166223999578506,None,,,,,,,,,,,,,,,,,,,,,,,test1,005,2025-09-26_09h40.53.966,Priming_gender,,2025.1.1,60.593207518139366,2025-09-26 09h41.02.673604 +0700,
นเรศ,พิมพ์ใจ,women.png,นเรศ,men.png,นเรศ,10,51,101,22,22,9,j,0.6423142999410629,None,,,,9,22,22,1,,,,,16.13737959996797,,,,,,,,,16.129477299982682,16.13737959996797,16.13737959996797,16.13737959996797,16.13737959996797,16.786001699976623,j,0.6423142999410629,None,,,,,,,,,,,,,,,,,,,,,,,test1,005,2025-09-26_09h40.53.966,Priming_gender,,2025.1.1,60.593207518139366,2025-09-26 09h41.02.673604 +0700,
กฤษณะ,กาญจนา,men.png,กฤษณะ,men.png,กฤษณะ,10,50,100,23,23,13,k,0.6778978999936953,None,,,,13,23,23,0,,,,,16.821820099954493,,,,,,,,,16.812599599943496,16.821820099954493,16.821820099954493,16.821820099954493,16.821820099954493,17.502426099963486,k,0.6778978999936953,None,,,,,,,,,,,,,,,,,,,,,,,test1,005,2025-09-26_09h40.53.966,Priming_gender,,2025.1.1,60.593207518139366,2025-09-26 09h41.02.673604 +0700,
นเรศ,พิมพ์ใจ,women.png,นเรศ,men.png,นเรศ,10,51,101,24,24,10,j,0.6188192000845447,None,,,,10,24,24,1,,,,,17.53647589997854,,,,,,,,,17.528701199917123,17.53647589997854,17.53647589997854,17.53647589997854,17.53647589997854,18.16899839998223,j,0.6188192000845447,None,,,,,,,,,,,,,,,,,,,,,,,test1,005,2025-09-26_09h40.53.966,Priming_gender,,2025.1.1,60.593207518139366,2025-09-26 09h41.02.673604 +0700,
กฤษณะ,กาญจนา,men.png,กฤษณะ,men.png,กฤษณะ,10,50,100,25,25,14,k,0.4630281999707222,None,,,,14,25,25,0,,,,,18.20478309993632,,,,,,,,,18.19732519995887,18.20478309993632,18.20478309993632,18.20478309993632,18.20478309993632,18.66877589991782,k,0.4630281999707222,None,,,,,,,,,,,,,,,,,,,,,,,test1,005,2025-09-26_09h40.53.966,Priming_gender,,2025.1.1,60.593207518139366,2025-09-26 09h41.02.673604 +0700,
กฤษณะ,กาญจนา,men.png,กฤษณะ,men.png,กฤษณะ,10,50,100,26,26,15,k,0.49126919999253005,None,,,,15,26,26,0,,,,,18.704243399901316,,,,,,,,,18.697294499957934,18.704243399901316,18.704243399901316,18.704243399901316,18.704243399901316,19.202023999998346,k,0.49126919999253005,None,,,,,,,,,,,,,,,,,,,,,,,test1,005,2025-09-26_09h40.53.966,Priming_gender,,2025.1.1,60.593207518139366,2025-09-26 09h41.02.673604 +0700,
นเรศ,พิมพ์ใจ,women.png,นเรศ,men.png,นเรศ,10,51,101,27,27,11,k,0.18092040007468313,None,,,,11,27,27,1,,,,,19.238638199982233,,,,,,,,,19.23018209997099,19.238638199982233,19.238638199982233,19.238638199982233,19.238638199982233,19.434908299939707,k,0.18092040007468313,None,,,,,,,,,,,,,,,,,,,,,,,test1,005,2025-09-26_09h40.53.966,Priming_gender,,2025.1.1,60.593207518139366,2025-09-26 09h41.02.673604 +0700,
นเรศ,พิมพ์ใจ,women.png,นเรศ,men.png,นเรศ,10,51,101,28,28,12,j,0.3482421999797225,None,,,,12,28,28,1,,,,,19.471218999940902,,,,,,,,,19.46389969997108,19.471218999940902,19.471218999940902,19.471218999940902,19.471218999940902,19.83504339994397,j,0.3482421999797225,None,,,,,,,,,,,,,,,,,,,,,,,test1,005,2025-09-26_09h40.53.966,Priming_gender,,2025.1.1,60.593207518139366,2025-09-26 09h41.02.673604 +0700,
นเรศ,พิมพ์ใจ,women.png,นเรศ,men.png,นเรศ,10,51,101,29,29,13,j,0.47724439995363355,None,,,,13,29,29,1,,,,,19.87086659995839,,,,,,,,,19.863153599901125,19.87086659995839,19.87086659995839,19.87086659995839,19.87086659995839,20.35198739997577,j,0.47724439995363355,None,,,,,,,,,,,,,,,,,,,,,,,test1,005,2025-09-26_09h40.53.966,Priming_gender,,2025.1.1,60.593207518139366,2025-09-26 09h41.02.673604 +0700,
นเรศ,พิมพ์ใจ,women.png,นเรศ,men.png,นเรศ,10,51,101,30,30,14,j,0.4543300000950694,None,,,,14,30,30,1,,,,,20.389117099926807,,,,,,,,,20.38095409993548,20.389117099926807,20.389117099926807,20.389117099926807,20.389117099926807,20.852097499999218,j,0.4543300000950694,None,,,,,,,,,,,,,,,,,,,,,,,test1,005,2025-09-26_09h40.53.966,Priming_gender,,2025.1.1,60.593207518139366,2025-09-26 09h41.02.673604 +0700,
นเรศ,พิมพ์ใจ,women.png,นเรศ,men.png,นเรศ,10,51,101,31,31,15,j,0.7546600999776274,None,,,,15,31,31,1,,,,,20.88948829995934,,,,,,,,,20.880072699976154,20.88948829995934,20.88948829995934,20.88948829995934,20.88948829995934,21.651699799927883,j,0.7546600999776274,None,,,,,,,,,,,,,,,,,,,,,,,test1,005,2025-09-26_09h40.53.966,Priming_gender,,2025.1.1,60.593207518139366,2025-09-26 09h41.02.673604 +0700,
นเรศ,พิมพ์ใจ,women.png,นเรศ,men.png,นเรศ,10,51,101,32,32,16,j,0.2465770998969674,None,,,,16,32,32,1,,,,,21.68531269999221,,,,,,,,,21.678245799965225,21.68531269999221,21.68531269999221,21.68531269999221,21.68531269999221,21.93527119990904,j,0.2465770998969674,None,,,,,,,,,,,,,,,,,,,,,,,test1,005,2025-09-26_09h40.53.966,Priming_gender,,2025.1.1,60.593207518139366,2025-09-26 09h41.02.673604 +0700,
กฤษณะ,กาญจนา,men.png,กฤษณะ,men.png,กฤษณะ,10,50,100,33,33,16,j,0.18542000011075288,None,,,,16,33,33,0,,,,,21.96995259996038,,,,,,,,,21.962442399933934,21.96995259996038,21.96995259996038,21.96995259996038,21.96995259996038,22.168106899945997,j,0.18542000011075288,None,,,,,,,,,,,,,,,,,,,,,,,test1,005,2025-09-26_09h40.53.966,Priming_gender,,2025.1.1,60.593207518139366,2025-09-26 09h41.02.673604 +0700,
นเรศ,พิมพ์ใจ,women.png,นเรศ,men.png,นเรศ,10,51,101,34,34,17,j,1.2816349000204355,None,,,,17,34,34,1,,,,,22.202671599923633,,,,,,,,,22.19551499991212,22.202671599923633,22.202671599923633,22.202671599923633,22.202671599923633,23.485450099920854,j,1.2816349000204355,None,,,,,,,,,,,,,,,,,,,,,,,test1,005,2025-09-26_09h40.53.966,Priming_gender,,2025.1.1,60.593207518139366,2025-09-26 09h41.02.673604 +0700,
นเรศ,พิมพ์ใจ,women.png,นเรศ,men.png,นเรศ,10,51,101,35,35,18,j,0.5393853000132367,None,,,,18,35,35,1,,,,,23.52042249997612,,,,,,,,,23.512470899964683,23.52042249997612,23.52042249997612,23.52042249997612,23.52042249997612,24.067799899959937,j,0.5393853000132367,None,,,,,,,,,,,,,,,,,,,,,,,test1,005,2025-09-26_09h40.53.966,Priming_gender,,2025.1.1,60.593207518139366,2025-09-26 09h41.02.673604 +0700,
กฤษณะ,กาญจนา,men.png,กฤษณะ,men.png,กฤษณะ,10,50,100,36,36,17,k,0.56454459996894,None,,,,17,36,36,0,,,,,24.10312789992895,,,,,,,,,24.095943999942392,24.10312789992895,24.10312789992895,24.10312789992895,24.10312789992895,24.66899779997766,k,0.56454459996894,None,,,,,,,,,,,,,,,,,,,,,,,test1,005,2025-09-26_09h40.53.966,Priming_gender,,2025.1.1,60.593207518139366,2025-09-26 09h41.02.673604 +0700,
กฤษณะ,กาญจนา,men.png,กฤษณะ,men.png,กฤษณะ,10,50,100,37,37,18,k,0.47660709999036044,None,,,,18,37,37,0,,,,,24.703832399914972,,,,,,,,,24.696431699907407,24.703832399914972,24.703832399914972,24.703832399914972,24.703832399914972,25.184610500000417,k,0.47660709999036044,None,,,,,,,,,,,,,,,,,,,,,,,test1,005,2025-09-26_09h40.53.966,Priming_gender,,2025.1.1,60.593207518139366,2025-09-26 09h41.02.673604 +0700,
กฤษณะ,กาญจนา,men.png,กฤษณะ,men.png,กฤษณะ,10,50,100,38,38,19,k,0.1679413999663666,None,,,,19,38,38,0,,,,,25.219291499932297,,,,,,,,,25.211604599957354,25.219291499932297,25.219291499932297,25.219291499932297,25.219291499932297,25.401201499975286,k,0.1679413999663666,None,,,,,,,,,,,,,,,,,,,,,,,test1,005,2025-09-26_09h40.53.966,Priming_gender,,2025.1.1,60.593207518139366,2025-09-26 09h41.02.673604 +0700,
นเรศ,พิมพ์ใจ,women.png,นเรศ,men.png,นเรศ,10,51,101,39,39,19,k,0.15735450002830476,None,,,,19,39,39,1,,,,,25.43831409991253,,,,,,,,,25.429586299927905,25.43831409991253,25.43831409991253,25.43831409991253,25.43831409991253,25.601330899982713,k,0.15735450002830476,None,,,,,,,,,,,,,,,,,,,,,,,test1,005,2025-09-26_09h40.53.966,Priming_gender,,2025.1.1,60.593207518139366,2025-09-26 09h41.02.673604 +0700,
,,,,,,,,,,,,,,,,,,,,,,,,,,,,,,,,,,,,,,,,,,,,25.601514299982227,25.619295099982992,25.619295099982992,26.50392569997348,space,0.8723788999486715,None,,,,,,,,,,,,,,,,test1,005,2025-09-26_09h40.53.966,Priming_gender,,2025.1.1,60.593207518139366,2025-09-26 09h41.02.673604 +0700,
None,None,None,None,women.png,ชัยวัฒน์,11,54,124,0,0,0,,,,j,1.6635067999595776,None,,,,,0,0,0,24,26.571631499915384,,,,,,,,,,,,,,,,,,,,,,,,,26.5544359999476,26.571631499915384,26.571631499915384,26.571631499915384,26.571631499915384,26.571631499915384,26.571631499915384,26.817135399905965,26.88464419997763,28.251915599917993,j,1.6635067999595776,None,,,test1,005,2025-09-26_09h40.53.966,Priming_gender,,2025.1.1,60.593207518139366,2025-09-26 09h41.02.673604 +0700,
None,None,None,ปัทมา,men.png,ปัทมา,10,69,119,1,1,0,,,,k,0.9717785000102594,None,,,,,0,1,1,19,28.30339879996609,,,,,,,,,,,,,,,,,,,,,,,,,28.290488399914466,28.30339879996609,28.30339879996609,28.30339879996609,28.30339879996609,28.30339879996609,28.30339879996609,28.55126370000653,28.61750579997897,29.284180899965577,k,0.9717785000102594,None,,,test1,005,2025-09-26_09h40.53.966,Priming_gender,,2025.1.1,60.593207518139366,2025-09-26 09h41.02.673604 +0700,
None,None,None,สุพัตรา,men.png,สุพัตรา,10,63,113,2,2,0,,,,k,1.2057481999509037,None,,,,,0,2,2,13,29.333773499936797,,,,,,,,,,,,,,,,,,,,,,,,,29.322232599952258,29.333773499936797,29.333773499936797,29.333773499936797,29.333773499936797,29.333773499936797,29.333773499936797,29.58541099994909,29.63454969995655,30.550969999982044,k,1.2057481999509037,None,,,test1,005,2025-09-26_09h40.53.966,Priming_gender,,2025.1.1,60.593207518139366,2025-09-26 09h41.02.673604 +0700,
None,None,None,None,women.png,สุนิสา,11,68,138,3,3,0,,,,j,1.128086999990046,None,,,,,0,3,3,38,30.595371300005354,,,,,,,,,,,,,,,,,,,,,,,,,30.58276629995089,30.595371300005354,30.595371300005354,30.595371300005354,30.595371300005354,30.595371300005354,30.595371300005354,30.8678280999884,30.90101789997425,31.73489639989566,j,1.128086999990046,None,,,test1,005,2025-09-26_09h40.53.966,Priming_gender,,2025.1.1,60.593207518139366,2025-09-26 09h41.02.673604 +0700,
None,None,None,None,women.png,ศิริพร,11,64,134,4,4,0,,,,j,1.140433199936524,None,,,,,0,4,4,34,31.782686399994418,,,,,,,,,,,,,,,,,,,,,,,,,31.768147099995986,31.782686399994418,31.782686399994418,31.782686399994418,31.782686399994418,31.782686399994418,31.782686399994418,32.03394219989423,32.08434259996284,32.934129799949005,j,1.140433199936524,None,,,test1,005,2025-09-26_09h40.53.966,Priming_gender,,2025.1.1,60.593207518139366,2025-09-26 09h41.02.673604 +0700,
None,None,None,None,women.png,ภูมิพัฒน์,11,56,126,5,5,0,,,,j,1.7308842000784352,None,,,,,0,5,5,26,32.985071899951436,,,,,,,,,,,,,,,,,,,,,,,,,32.97248229989782,32.985071899951436,32.985071899951436,32.985071899951436,32.985071899951436,32.985071899951436,32.985071899951436,33.23557759996038,33.28565879992675,34.71784669999033,j,1.7308842000784352,None,,,test1,005,2025-09-26_09h40.53.966,Priming_gender,,2025.1.1,60.593207518139366,2025-09-26 09h41.02.673604 +0700,
ศักดิ์สิทธิ์,สุนิสา,None,ศักดิ์สิทธิ์,men.png,ศักดิ์สิทธิ์,10,58,108,6,6,0,,,,k,1.5498938999371603,None,,,,,0,6,6,8,34.76652159995865,,,,,,,,,,,,,,,,,,,,,,,,,34.75386349996552,34.76652159995865,34.76652159995865,34.76652159995865,34.76652159995865,34.76652159995865,34.76652159995865,35.01767739991192,35.06788779993076,36.31810759997461,k,1.5498938999371603,None,,,test1,005,2025-09-26_09h40.53.966,Priming_gender,,2025.1.1,60.593207518139366,2025-09-26 09h41.02.673604 +0700,
None,None,None,วรรณา,men.png,วรรณา,10,67,117,7,7,0,,,,j,1.2325009999331087,None,,,,,0,7,7,17,36.36324789992068,,,,,,,,,,,,,,,,,,,,,,,,,36.350306599983014,36.36324789992068,36.36324789992068,36.36324789992068,36.36324789992068,36.36324789992068,36.36324789992068,36.63381809997372,36.66787020000629,37.60055909992661,j,1.2325009999331087,None,,,test1,005,2025-09-26_09h40.53.966,Priming_gender,,2025.1.1,60.593207518139366,2025-09-26 09h41.02.673604 +0700,
ธนพล,วาสนา,None,ธนพล,men.png,ธนพล,10,52,102,8,8,0,,,,k,1.5004578999942169,None,,,,,0,8,8,2,37.646967399981804,,,,,,,,,,,,,,,,,,,,,,,,,37.6339192999294,37.646967399981804,37.646967399981804,37.646967399981804,37.646967399981804,37.646967399981804,37.646967399981804,37.900493899942376,37.95110089995433,39.1502997999778,k,1.5004578999942169,None,,,test1,005,2025-09-26_09h40.53.966,Priming_gender,,2025.1.1,60.593207518139366,2025-09-26 09h41.02.673604 +0700,
อรรถพล,สุพัตรา,None,อรรถพล,men.png,อรรถพล,10,53,103,9,9,0,,,,k,1.1822193999541923,None,,,,,0,9,9,3,39.19749609997962,,,,,,,,,,,,,,,,,,,,,,,,,39.18442489998415,39.19749609997962,39.19749609997962,39.19749609997962,39.19749609997962,39.19749609997962,39.19749609997962,39.451766299898736,39.501913499902,40.38389639998786,k,1.1822193999541923,None,,,test1,005,2025-09-26_09h40.53.966,Priming_gender,,2025.1.1,60.593207518139366,2025-09-26 09h41.02.673604 +0700,
None,None,None,None,women.png,พิมพ์ใจ,11,61,131,10,10,0,,,,j,1.2719570000190288,None,,,,,0,10,10,31,40.435569099965505,,,,,,,,,,,,,,,,,,,,,,,,,40.41935069998726,40.435569099965505,40.435569099965505,40.435569099965505,40.435569099965505,40.435569099965505,40.435569099965505,40.70019509992562,40.75020369992126,41.71726319997106,j,1.2719570000190288,None,,,test1,005,2025-09-26_09h40.53.966,Priming_gender,,2025.1.1,60.593207518139366,2025-09-26 09h41.02.673604 +0700,
None,None,None,None,women.png,ปริญญา,11,55,125,11,11,0,,,,j,1.2391580999828875,None,,,,,0,11,11,25,41.763843299937434,,,,,,,,,,,,,,,,,,,,,,,,,41.75098639994394,41.763843299937434,41.763843299937434,41.763843299937434,41.763843299937434,41.763843299937434,41.763843299937434,42.017150999978185,42.06667390000075,43.01734989997931,j,1.2391580999828875,None,,,test1,005,2025-09-26_09h40.53.966,Priming_gender,,2025.1.1,60.593207518139366,2025-09-26 09h41.02.673604 +0700,
None,None,None,None,women.png,กฤษณะ,11,50,120,12,12,0,,,,j,1.2283560000360012,None,,,,,0,12,12,20,43.07099069992546,,,,,,,,,,,,,,,,,,,,,,,,,43.05876179994084,43.07099069992546,43.07099069992546,43.07099069992546,43.07099069992546,43.07099069992546,43.07099069992546,43.33342489995994,43.38324399990961,44.30077489989344,j,1.2283560000360012,None,,,test1,005,2025-09-26_09h40.53.966,Priming_gender,,2025.1.1,60.593207518139366,2025-09-26 09h41.02.673604 +0700,
ปริญญา,อาภรณ์,None,ปริญญา,men.png,ปริญญา,10,55,105,13,13,0,,,,j,0.9193592999363318,None,,,,,0,13,13,5,44.3404118999606,,,,,,,,,,,,,,,,,,,,,,,,,44.328941299929284,44.3404118999606,44.3404118999606,44.3404118999606,44.3404118999606,44.3404118999606,44.3404118999606,44.617972199921496,44.65012020000722,45.267408499959856,j,0.9193592999363318,None,,,test1,005,2025-09-26_09h40.53.966,Priming_gender,,2025.1.1,60.593207518139366,2025-09-26 09h41.02.673604 +0700,
None,None,None,None,women.png,อรรถพล,11,53,123,14,14,0,,,,k,1.4575760000152513,None,,,,,0,14,14,23,45.306067999918014,,,,,,,,,,,,,,,,,,,,,,,,,45.29507869994268,45.306067999918014,45.306067999918014,45.306067999918014,45.306067999918014,45.306067999918014,45.306067999918014,45.585274199955165,45.61666959989816,46.76699459995143,k,1.4575760000152513,None,,,test1,005,2025-09-26_09h40.53.966,Priming_gender,,2025.1.1,60.593207518139366,2025-09-26 09h41.02.673604 +0700,
None,None,None,None,women.png,กาญจนา,11,60,130,15,15,0,,,,j,0.8688432000344619,None,,,,,0,15,15,30,46.80659860000014,,,,,,,,,,,,,,,,,,,,,,,,,46.79503649997059,46.80659860000014,46.80659860000014,46.80659860000014,46.80659860000014,46.80659860000014,46.80659860000014,47.066646299907006,47.11668129998725,47.68334809993394,j,0.8688432000344619,None,,,test1,005,2025-09-26_09h40.53.966,Priming_gender,,2025.1.1,60.593207518139366,2025-09-26 09h41.02.673604 +0700,
None,None,None,None,women.png,ธนพล,11,52,122,16,16,0,,,,j,0.6551302999723703,None,,,,,0,16,16,22,47.72432029992342,,,,,,,,,,,,,,,,,,,,,,,,,47.7127143999096,47.72432029992342,47.72432029992342,47.72432029992342,47.72432029992342,47.72432029992342,47.72432029992342,47.98368099995423,48.03439519996755,48.38309119991027,j,0.6551302999723703,None,,,test1,005,2025-09-26_09h40.53.966,Priming_gender,,2025.1.1,60.593207518139366,2025-09-26 09h41.02.673604 +0700,
None,None,None,None,women.png,พิสิฐ,11,59,129,17,17,0,,,,j,1.2629734999500215,None,,,,,0,17,17,29,48.428550599957816,,,,,,,,,,,,,,,,,,,,,,,,,48.41631369991228,48.428550599957816,48.428550599957816,48.428550599957816,48.428550599957816,48.428550599957816,48.428550599957816,48.68473559990525,48.73501750000287,49.699698199983686,j,1.2629734999500215,None,,,test1,005,2025-09-26_09h40.53.966,Priming_gender,,2025.1.1,60.593207518139366,2025-09-26 09h41.02.673604 +0700,
None,None,None,None,women.png,ศักดิ์สิทธิ์,11,58,128,18,18,0,,,,j,1.101535699912347,None,,,,,0,18,18,28,49.741264099953696,,,,,,,,,,,,,,,,,,,,,,,,,49.73007199994754,49.741264099953696,49.741264099953696,49.741264099953696,49.741264099953696,49.741264099953696,49.741264099953696,50.00199239992071,50.04997699998785,50.851062599918805,j,1.101535699912347,None,,,test1,005,2025-09-26_09h40.53.966,Priming_gender,,2025.1.1,60.593207518139366,2025-09-26 09h41.02.673604 +0700,
None,None,None,กาญจนา,men.png,กาญจนา,10,60,110,19,19,0,,,,k,1.6315555999753997,None,,,,,0,19,19,10,50.89185249991715,,,,,,,,,,,,,,,,,,,,,,,,,50.879980899975635,50.89185249991715,50.89185249991715,50.89185249991715,50.89185249991715,50.89185249991715,50.89185249991715,51.14982339995913,51.199862199951895,52.533233499969356,k,1.6315555999753997,None,,,test1,005,2025-09-26_09h40.53.966,Priming_gender,,2025.1.1,60.593207518139366,2025-09-26 09h41.02.673604 +0700,
พิสิฐ,ปัทมา,None,พิสิฐ,men.png,พิสิฐ,10,59,109,20,20,0,,,,k,0.9266848000697792,None,,,,,0,20,20,9,52.57284139993135,,,,,,,,,,,,,,,,,,,,,,,,,52.56110990000889,52.57284139993135,52.57284139993135,52.57284139993135,52.57284139993135,52.57284139993135,52.57284139993135,52.83348599995952,52.8835852999473,53.50088649999816,k,0.9266848000697792,None,,,test1,005,2025-09-26_09h40.53.966,Priming_gender,,2025.1.1,60.593207518139366,2025-09-26 09h41.02.673604 +0700,
None,None,None,None,women.png,วรรณา,11,67,137,21,21,0,,,,j,0.9351453999988735,None,,,,,0,21,21,37,53.5399594999617,,,,,,,,,,,,,,,,,,,,,,,,,53.52882099989802,53.5399594999617,53.5399594999617,53.5399594999617,53.5399594999617,53.5399594999617,53.5399594999617,53.80099919997156,53.84928329999093,54.483716599992476,j,0.9351453999988735,None,,,test1,005,2025-09-26_09h40.53.966,Priming_gender,,2025.1.1,60.593207518139366,2025-09-26 09h41.02.673604 +0700,
None,None,None,None,women.png,วรพล,11,57,127,22,22,0,,,,j,1.120956499944441,None,,,,,0,22,22,27,54.522519599995576,,,,,,,,,,,,,,,,,,,,,,,,,54.51192459999584,54.522519599995576,54.522519599995576,54.522519599995576,54.522519599995576,54.522519599995576,54.522519599995576,54.783345700008795,54.83325949998107,55.64964969991706,j,1.120956499944441,None,,,test1,005,2025-09-26_09h40.53.966,Priming_gender,,2025.1.1,60.593207518139366,2025-09-26 09h41.02.673604 +0700,
วรพล,วรรณา,None,วรพล,men.png,วรพล,10,57,107,23,23,0,,,,k,0.9452707999153063,None,,,,,0,23,23,7,55.68963039992377,,,,,,,,,,,,,,,,,,,,,,,,,55.67822369991336,55.68963039992377,55.68963039992377,55.68963039992377,55.68963039992377,55.68963039992377,55.68963039992377,55.951507399906404,56.00054169993382,56.64952009997796,k,0.9452707999153063,None,,,test1,005,2025-09-26_09h40.53.966,Priming_gender,,2025.1.1,60.593207518139366,2025-09-26 09h41.02.673604 +0700,
None,None,None,None,women.png,นเรศ,11,51,121,24,24,0,,,,j,0.9796062000095844,None,,,,,0,24,24,21,56.69570979999844,,,,,,,,,,,,,,,,,,,,,,,,,56.683796099969186,56.69570979999844,56.69570979999844,56.69570979999844,56.69570979999844,56.69570979999844,56.69570979999844,56.949371599941514,56.99974159989506,57.6828211999964,j,0.9796062000095844,None,,,test1,005,2025-09-26_09h40.53.966,Priming_gender,,2025.1.1,60.593207518139366,2025-09-26 09h41.02.673604 +0700,
นเรศ,พิมพ์ใจ,women.png,นเรศ,men.png,นเรศ,10,51,101,25,25,0,,,,k,1.9071051999926567,None,,,,,0,25,25,1,57.72066689992789,,,,,,,,,,,,,,,,,,,,,,,,,57.71145279996563,57.72066689992789,57.72066689992789,57.72066689992789,57.72066689992789,57.72066689992789,57.72066689992789,57.99909949989524,58.03295049990993,59.63250569999218,k,1.9071051999926567,None,,,test1,005,2025-09-26_09h40.53.966,Priming_gender,,2025.1.1,60.593207518139366,2025-09-26 09h41.02.673604 +0700,
None,None,None,สุนิสา,men.png,สุนิสา,10,68,118,26,26,0,,,,k,1.1555001999950036,None,,,,,0,26,26,18,59.67195319989696,,,,,,,,,,,,,,,,,,,,,,,,,59.66031269996893,59.67195319989696,59.67195319989696,59.67195319989696,59.67195319989696,59.67195319989696,59.67195319989696,59.93258879997302,59.98237959994003,60.83242339990102,k,1.1555001999950036,None,,,test1,005,2025-09-26_09h40.53.966,Priming_gender,,2025.1.1,60.593207518139366,2025-09-26 09h41.02.673604 +0700,
None,None,None,None,women.png,จิตติมา,11,66,136,27,27,0,,,,j,0.7398446999723092,None,,,,,0,27,27,36,60.871668799896725,,,,,,,,,,,,,,,,,,,,,,,,,60.86051949998364,60.871668799896725,60.871668799896725,60.871668799896725,60.871668799896725,60.871668799896725,60.871668799896725,61.13378199993167,61.182071699993685,61.61620499996934,j,0.7398446999723092,None,,,test1,005,2025-09-26_09h40.53.966,Priming_gender,,2025.1.1,60.593207518139366,2025-09-26 09h41.02.673604 +0700,
None,None,None,None,women.png,วาสนา,11,62,132,28,28,0,,,,j,0.6104967000428587,None,,,,,0,28,28,32,61.65635599999223,,,,,,,,,,,,,,,,,,,,,,,,,61.64521679992322,61.65635599999223,61.65635599999223,61.65635599999223,61.65635599999223,61.65635599999223,61.65635599999223,61.91560349997599,61.96603269991465,62.282365299994126,j,0.6104967000428587,None,,,test1,005,2025-09-26_09h40.53.966,Priming_gender,,2025.1.1,60.593207518139366,2025-09-26 09h41.02.673604 +0700,
กฤษณะ,กาญจนา,men.png,กฤษณะ,men.png,กฤษณะ,10,50,100,29,29,0,,,,k,0.7623755000531673,None,,,,,0,29,29,0,62.3211962999776,,,,,,,,,,,,,,,,,,,,,,,,,62.31030359992292,62.3211962999776,62.3211962999776,62.3211962999776,62.3211962999776,62.3211962999776,62.3211962999776,62.582321999943815,62.63302479998674,63.09902329999022,k,0.7623755000531673,None,,,test1,005,2025-09-26_09h40.53.966,Priming_gender,,2025.1.1,60.593207518139366,2025-09-26 09h41.02.673604 +0700,
None,None,None,ศิริพร,men.png,ศิริพร,10,64,114,30,30,0,,,,k,1.1948114999104291,None,,,,,0,30,30,14,63.136335099930875,,,,,,,,,,,,,,,,,,,,,,,,,63.127043599961326,63.136335099930875,63.136335099930875,63.136335099930875,63.136335099930875,63.136335099930875,63.136335099930875,63.3992278999649,63.449180499999784,64.3323465998983,k,1.1948114999104291,None,,,test1,005,2025-09-26_09h40.53.966,Priming_gender,,2025.1.1,60.593207518139366,2025-09-26 09h41.02.673604 +0700,
None,None,None,None,women.png,อาภรณ์,11,65,135,31,31,0,,,,j,1.3185097000095993,None,,,,,0,31,31,35,64.37295539991464,,,,,,,,,,,,,,,,,,,,,,,,,64.36029609991238,64.37295539991464,64.37295539991464,64.37295539991464,64.37295539991464,64.37295539991464,64.37295539991464,64.63250750000589,64.68254569999408,65.69909619993996,j,1.3185097000095993,None,,,test1,005,2025-09-26_09h40.53.966,Priming_gender,,2025.1.1,60.593207518139366,2025-09-26 09h41.02.673604 +0700,
None,None,None,อาภรณ์,men.png,อาภรณ์,10,65,115,32,32,0,,,,k,1.1507335000205785,None,,,,,0,32,32,15,65.74077419994865,,,,,,,,,,,,,,,,,,,,,,,,,65.72906109993346,65.74077419994865,65.74077419994865,65.74077419994865,65.74077419994865,65.74077419994865,65.74077419994865,66.00029539992101,66.0504303999478,66.8988049000036,k,1.1507335000205785,None,,,test1,005,2025-09-26_09h40.53.966,Priming_gender,,2025.1.1,60.593207518139366,2025-09-26 09h41.02.673604 +0700,
ภูมิพัฒน์,จิตติมา,None,ภูมิพัฒน์,men.png,ภูมิพัฒน์,10,56,106,33,33,0,,,,k,1.0722337999613956,None,,,,,0,33,33,6,66.93923289992381,,,,,,,,,,,,,,,,,,,,,,,,,66.92778769996949,66.93923289992381,66.93923289992381,66.93923289992381,66.93923289992381,66.93923289992381,66.93923289992381,67.19975379994139,67.25038709992077,68.01606199995149,k,1.0722337999613956,None,,,test1,005,2025-09-26_09h40.53.966,Priming_gender,,2025.1.1,60.593207518139366,2025-09-26 09h41.02.673604 +0700,
None,None,None,None,women.png,ปัทมา,11,69,139,34,34,0,,,,j,1.124029399943538,None,,,,,0,34,34,39,68.0558537999168,,,,,,,,,,,,,,,,,,,,,,,,,68.04384969989769,68.0558537999168,68.0558537999168,68.0558537999168,68.0558537999168,68.0558537999168,68.0558537999168,68.33172379992902,68.36518139997497,69.18388259992935,j,1.124029399943538,None,,,test1,005,2025-09-26_09h40.53.966,Priming_gender,,2025.1.1,60.593207518139366,2025-09-26 09h41.02.673604 +0700,
None,None,None,None,women.png,สุพัตรา,11,63,133,35,35,0,,,,j,1.1566199000226334,None,,,,,0,35,35,33,69.22286739991978,,,,,,,,,,,,,,,,,,,,,,,,,69.21119919989724,69.22286739991978,69.22286739991978,69.22286739991978,69.22286739991978,69.22286739991978,69.22286739991978,69.49956589995418,69.53179619996808,70.38161359995138,j,1.1566199000226334,None,,,test1,005,2025-09-26_09h40.53.966,Priming_gender,,2025.1.1,60.593207518139366,2025-09-26 09h41.02.673604 +0700,
None,None,None,พิมพ์ใจ,men.png,พิมพ์ใจ,10,61,111,36,36,0,,,,k,0.8679015999659896,None,,,,,0,36,36,11,70.42324599996209,,,,,,,,,,,,,,,,,,,,,,,,,70.41139859997202,70.42324599996209,70.42324599996209,70.42324599996209,70.42324599996209,70.42324599996209,70.42324599996209,70.6833270000061,70.73172209993936,71.29869069997221,k,0.8679015999659896,None,,,test1,005,2025-09-26_09h40.53.966,Priming_gender,,2025.1.1,60.593207518139366,2025-09-26 09h41.02.673604 +0700,
None,None,None,วาสนา,men.png,วาสนา,10,62,112,37,37,0,,,,k,1.3620897000655532,None,,,,,0,37,37,12,71.33775199996307,,,,,,,,,,,,,,,,,,,,,,,,,71.32746949989814,71.33775199996307,71.33775199996307,71.33775199996307,71.33775199996307,71.33775199996307,71.33775199996307,71.61411889991723,71.64787459990475,72.71521269995719,k,1.3620897000655532,None,,,test1,005,2025-09-26_09h40.53.966,Priming_gender,,2025.1.1,60.593207518139366,2025-09-26 09h41.02.673604 +0700,
ชัยวัฒน์,ศิริพร,None,ชัยวัฒน์,men.png,ชัยวัฒน์,10,54,104,38,38,0,,,,k,1.0319931000703946,None,,,,,0,38,38,4,72.75496829999611,,,,,,,,,,,,,,,,,,,,,,,,,72.74416010000277,72.75496829999611,72.75496829999611,72.75496829999611,72.75496829999611,72.75496829999611,72.75496829999611,73.01558879995719,73.06612879992463,73.79845749994274,k,1.0319931000703946,None,,,test1,005,2025-09-26_09h40.53.966,Priming_gender,,2025.1.1,60.593207518139366,2025-09-26 09h41.02.673604 +0700,
None,None,None,จิตติมา,men.png,จิตติมา,10,66,116,39,39,0,,,,k,1.0791939999908209,None,,,,,0,39,39,16,73.84412909997627,,,,,,,,,,,,,,,,,,,,,,,,,73.83119019994047,73.84412909997627,73.84412909997627,73.84412909997627,73.84412909997627,73.84412909997627,73.84412909997627,74.09941759996582,74.14912979991641,74.93196789990179,k,1.0791939999908209,None,,,test1,005,2025-09-26_09h40.53.966,Priming_gender,,2025.1.1,60.593207518139366,2025-09-26 09h41.02.673604 +0700,
,,,,,,,,,,,,,,,,,,,,,,,,,,,,,,,,,,,,,,,,,,,,,,,,,,,,,,,,,,,,,,,,75.04957679996733,75.04994639998768,test1,005,2025-09-26_09h40.53.966,Priming_gender,,2025.1.1,60.593207518139366,2025-09-26 09h41.02.673604 +0700,
