Male,Female,Image,Name,ImagePriming,NamePriming,ImageTrig,NameTrig,Trig,thisN,thisTrialN,thisRepN,key_resp.keys,key_resp.rt,key_resp.duration,key_resp_3.keys,key_resp_3.rt,key_resp_3.duration,training.thisRepN,training.thisTrialN,training.thisN,training.thisIndex,priming.thisRepN,priming.thisTrialN,priming.thisN,priming.thisIndex,thisRow.t,notes,training_Instruction.started,instruction_slide.started,instruction_continue.started,training_Instruction.stopped,instruction_continue.keys,instruction_continue.rt,instruction_continue.duration,training_block.started,MAN.started,WOMAN.started,pic.started,key_resp.started,training_block.stopped,training.key_resp.keys,training.key_resp.rt,training.key_resp.duration,priming_instruction.started,instruction_slide_2.started,instruction_continue_2.started,priming_instruction.stopped,instruction_continue_2.keys,instruction_continue_2.rt,instruction_continue_2.duration,priming_block.started,MAN_3.started,MAN_3_desc.started,WOMAN_3.started,WOMAN_3_desc.started,name_2.started,key_resp_3.started,pic_2.started,name_2.stopped,priming_block.stopped,priming.key_resp_3.keys,priming.key_resp_3.rt,priming.key_resp_3.duration,Ending.started,Ending.stopped,participant,session,date,expName,expVersion,psychopyVersion,frameRate,expStart,
,,,,,,,,,,,,,,,,,,,,,,,,,,,,0.008010899997316301,0.016865500016137958,0.016865500016137958,2.15482450008858,space,2.131768799968995,None,,,,,,,,,,,,,,,,,,,,,,,,,,,,,,,,test1,007,2025-09-26_09h46.01.019,Priming_gender,,2025.1.1,59.87357095283031,2025-09-26 09h46.10.824867 +0700,
กฤษณะ,กาญจนา,men.png,กฤษณะ,men.png,กฤษณะ,10,50,100,0,0,0,k,0.6565597000299022,None,,,,0,0,0,0,,,,,2.2267604999942705,,,,,,,,,2.1953199000563473,2.2267604999942705,2.2267604999942705,2.2267604999942705,2.2267604999942705,2.8983141999924555,k,0.6565597000299022,None,,,,,,,,,,,,,,,,,,,,,,,test1,007,2025-09-26_09h46.01.019,Priming_gender,,2025.1.1,59.87357095283031,2025-09-26 09h46.10.824867 +0700,
นเรศ,พิมพ์ใจ,women.png,นเรศ,men.png,นเรศ,10,51,101,1,1,0,j,0.6683186999289319,None,,,,0,1,1,1,,,,,2.9359215000877157,,,,,,,,,2.9274903000332415,2.9359215000877157,2.9359215000877157,2.9359215000877157,2.9359215000877157,3.6154430001042783,j,0.6683186999289319,None,,,,,,,,,,,,,,,,,,,,,,,test1,007,2025-09-26_09h46.01.019,Priming_gender,,2025.1.1,59.87357095283031,2025-09-26 09h46.10.824867 +0700,
กฤษณะ,กาญจนา,men.png,กฤษณะ,men.png,กฤษณะ,10,50,100,2,2,1,k,0.6864682999439538,None,,,,1,2,2,0,,,,,3.6534683000063524,,,,,,,,,3.6444747000932693,3.6534683000063524,3.6534683000063524,3.6534683000063524,3.6534683000063524,4.348716800101101,k,0.6864682999439538,None,,,,,,,,,,,,,,,,,,,,,,,test1,007,2025-09-26_09h46.01.019,Priming_gender,,2025.1.1,59.87357095283031,2025-09-26 09h46.10.824867 +0700,
นเรศ,พิมพ์ใจ,women.png,นเรศ,men.png,นเรศ,10,51,101,3,3,1,j,0.5464473000029102,None,,,,1,3,3,1,,,,,4.385378800099716,,,,,,,,,4.37734550004825,4.385378800099716,4.385378800099716,4.385378800099716,4.385378800099716,4.94874320004601,j,0.5464473000029102,None,,,,,,,,,,,,,,,,,,,,,,,test1,007,2025-09-26_09h46.01.019,Priming_gender,,2025.1.1,59.87357095283031,2025-09-26 09h46.10.824867 +0700,
กฤษณะ,กาญจนา,men.png,กฤษณะ,men.png,กฤษณะ,10,50,100,4,4,2,k,0.5671974000288174,None,,,,2,4,4,0,,,,,4.988178400089964,,,,,,,,,4.979408400016837,4.988178400089964,4.988178400089964,4.988178400089964,4.988178400089964,5.565057000028901,k,0.5671974000288174,None,,,,,,,,,,,,,,,,,,,,,,,test1,007,2025-09-26_09h46.01.019,Priming_gender,,2025.1.1,59.87357095283031,2025-09-26 09h46.10.824867 +0700,
นเรศ,พิมพ์ใจ,women.png,นเรศ,men.png,นเรศ,10,51,101,5,5,2,j,0.6530446999240667,None,,,,2,5,5,1,,,,,5.606962600024417,,,,,,,,,5.597525000106543,5.606962600024417,5.606962600024417,5.606962600024417,5.606962600024417,6.2648096000775695,j,0.6530446999240667,None,,,,,,,,,,,,,,,,,,,,,,,test1,007,2025-09-26_09h46.01.019,Priming_gender,,2025.1.1,59.87357095283031,2025-09-26 09h46.10.824867 +0700,
นเรศ,พิมพ์ใจ,women.png,นเรศ,men.png,นเรศ,10,51,101,6,6,3,j,0.6120152999646962,None,,,,3,6,6,1,,,,,6.30337740003597,,,,,,,,,6.29456160007976,6.30337740003597,6.30337740003597,6.30337740003597,6.30337740003597,6.931479700026102,j,0.6120152999646962,None,,,,,,,,,,,,,,,,,,,,,,,test1,007,2025-09-26_09h46.01.019,Priming_gender,,2025.1.1,59.87357095283031,2025-09-26 09h46.10.824867 +0700,
กฤษณะ,กาญจนา,men.png,กฤษณะ,men.png,กฤษณะ,10,50,100,7,7,3,k,0.5582266999408603,None,,,,3,7,7,0,,,,,6.965676799998619,,,,,,,,,6.958722300012596,6.965676799998619,6.965676799998619,6.965676799998619,6.965676799998619,7.531956800026819,k,0.5582266999408603,None,,,,,,,,,,,,,,,,,,,,,,,test1,007,2025-09-26_09h46.01.019,Priming_gender,,2025.1.1,59.87357095283031,2025-09-26 09h46.10.824867 +0700,
กฤษณะ,กาญจนา,men.png,กฤษณะ,men.png,กฤษณะ,10,50,100,8,8,4,k,0.5135831999359652,None,,,,4,8,8,0,,,,,7.5697668000357226,,,,,,,,,7.560232400079258,7.5697668000357226,7.5697668000357226,7.5697668000357226,7.5697668000357226,8.098865700070746,k,0.5135831999359652,None,,,,,,,,,,,,,,,,,,,,,,,test1,007,2025-09-26_09h46.01.019,Priming_gender,,2025.1.1,59.87357095283031,2025-09-26 09h46.10.824867 +0700,
กฤษณะ,กาญจนา,men.png,กฤษณะ,men.png,กฤษณะ,10,50,100,9,9,5,k,0.6031580000417307,None,,,,5,9,9,0,,,,,8.13677700003609,,,,,,,,,8.12744529999327,8.13677700003609,8.13677700003609,8.13677700003609,8.13677700003609,8.749085000017658,k,0.6031580000417307,None,,,,,,,,,,,,,,,,,,,,,,,test1,007,2025-09-26_09h46.01.019,Priming_gender,,2025.1.1,59.87357095283031,2025-09-26 09h46.10.824867 +0700,
นเรศ,พิมพ์ใจ,women.png,นเรศ,men.png,นเรศ,10,51,101,10,10,4,j,0.6110430000117049,None,,,,4,10,10,1,,,,,8.785844900063239,,,,,,,,,8.776411700062454,8.785844900063239,8.785844900063239,8.785844900063239,8.785844900063239,9.398447600076906,j,0.6110430000117049,None,,,,,,,,,,,,,,,,,,,,,,,test1,007,2025-09-26_09h46.01.019,Priming_gender,,2025.1.1,59.87357095283031,2025-09-26 09h46.10.824867 +0700,
กฤษณะ,กาญจนา,men.png,กฤษณะ,men.png,กฤษณะ,10,50,100,11,11,6,k,0.5538221000460908,None,,,,6,11,11,0,,,,,9.43400470004417,,,,,,,,,9.426618600031361,9.43400470004417,9.43400470004417,9.43400470004417,9.43400470004417,9.998198000015691,k,0.5538221000460908,None,,,,,,,,,,,,,,,,,,,,,,,test1,007,2025-09-26_09h46.01.019,Priming_gender,,2025.1.1,59.87357095283031,2025-09-26 09h46.10.824867 +0700,
กฤษณะ,กาญจนา,men.png,กฤษณะ,men.png,กฤษณะ,10,50,100,12,12,7,k,0.5291521999752149,None,,,,7,12,12,0,,,,,10.03528010006994,,,,,,,,,10.026890700100921,10.03528010006994,10.03528010006994,10.03528010006994,10.03528010006994,10.56516850006301,k,0.5291521999752149,None,,,,,,,,,,,,,,,,,,,,,,,test1,007,2025-09-26_09h46.01.019,Priming_gender,,2025.1.1,59.87357095283031,2025-09-26 09h46.10.824867 +0700,
กฤษณะ,กาญจนา,men.png,กฤษณะ,men.png,กฤษณะ,10,50,100,13,13,8,k,0.49113440001383424,None,,,,8,13,13,0,,,,,10.600622200057842,,,,,,,,,10.59249790001195,10.600622200057842,10.600622200057842,10.600622200057842,10.600622200057842,11.098324800026603,k,0.49113440001383424,None,,,,,,,,,,,,,,,,,,,,,,,test1,007,2025-09-26_09h46.01.019,Priming_gender,,2025.1.1,59.87357095283031,2025-09-26 09h46.10.824867 +0700,
กฤษณะ,กาญจนา,men.png,กฤษณะ,men.png,กฤษณะ,10,50,100,14,14,9,k,0.5315539999864995,None,,,,9,14,14,0,,,,,11.135892600053921,,,,,,,,,11.127539500012062,11.135892600053921,11.135892600053921,11.135892600053921,11.135892600053921,11.681649300036952,k,0.5315539999864995,None,,,,,,,,,,,,,,,,,,,,,,,test1,007,2025-09-26_09h46.01.019,Priming_gender,,2025.1.1,59.87357095283031,2025-09-26 09h46.10.824867 +0700,
กฤษณะ,กาญจนา,men.png,กฤษณะ,men.png,กฤษณะ,10,50,100,15,15,10,k,0.4757212999975309,None,,,,10,15,15,0,,,,,11.720241300063208,,,,,,,,,11.71142010006588,11.720241300063208,11.720241300063208,11.720241300063208,11.720241300063208,12.199762600008398,k,0.4757212999975309,None,,,,,,,,,,,,,,,,,,,,,,,test1,007,2025-09-26_09h46.01.019,Priming_gender,,2025.1.1,59.87357095283031,2025-09-26 09h46.10.824867 +0700,
นเรศ,พิมพ์ใจ,women.png,นเรศ,men.png,นเรศ,10,51,101,16,16,5,j,0.582266699988395,None,,,,5,16,16,1,,,,,12.237504300079308,,,,,,,,,12.228979200008325,12.237504300079308,12.237504300079308,12.237504300079308,12.237504300079308,12.833126400015317,j,0.582266699988395,None,,,,,,,,,,,,,,,,,,,,,,,test1,007,2025-09-26_09h46.01.019,Priming_gender,,2025.1.1,59.87357095283031,2025-09-26 09h46.10.824867 +0700,
นเรศ,พิมพ์ใจ,women.png,นเรศ,men.png,นเรศ,10,51,101,17,17,6,j,0.6217532000737265,None,,,,6,17,17,1,,,,,12.870476800017059,,,,,,,,,12.862032000091858,12.870476800017059,12.870476800017059,12.870476800017059,12.870476800017059,13.498979700030759,j,0.6217532000737265,None,,,,,,,,,,,,,,,,,,,,,,,test1,007,2025-09-26_09h46.01.019,Priming_gender,,2025.1.1,59.87357095283031,2025-09-26 09h46.10.824867 +0700,
กฤษณะ,กาญจนา,men.png,กฤษณะ,men.png,กฤษณะ,10,50,100,18,18,11,k,0.9144813000457361,None,,,,11,18,18,0,,,,,13.537143300054595,,,,,,,,,13.5284673999995,13.537143300054595,13.537143300054595,13.537143300054595,13.537143300054595,14.464544200105593,k,0.9144813000457361,None,,,,,,,,,,,,,,,,,,,,,,,test1,007,2025-09-26_09h46.01.019,Priming_gender,,2025.1.1,59.87357095283031,2025-09-26 09h46.10.824867 +0700,
นเรศ,พิมพ์ใจ,women.png,นเรศ,men.png,นเรศ,10,51,101,19,19,7,j,0.5726722000399604,None,,,,7,19,19,1,,,,,14.503319200011902,,,,,,,,,14.494227900053374,14.503319200011902,14.503319200011902,14.503319200011902,14.503319200011902,15.081037000054494,j,0.5726722000399604,None,,,,,,,,,,,,,,,,,,,,,,,test1,007,2025-09-26_09h46.01.019,Priming_gender,,2025.1.1,59.87357095283031,2025-09-26 09h46.10.824867 +0700,
นเรศ,พิมพ์ใจ,women.png,นเรศ,men.png,นเรศ,10,51,101,20,20,8,j,0.48619749990757555,None,,,,8,20,20,1,,,,,15.117692600004375,,,,,,,,,15.109091900056228,15.117692600004375,15.117692600004375,15.117692600004375,15.117692600004375,15.615120700094849,j,0.48619749990757555,None,,,,,,,,,,,,,,,,,,,,,,,test1,007,2025-09-26_09h46.01.019,Priming_gender,,2025.1.1,59.87357095283031,2025-09-26 09h46.10.824867 +0700,
นเรศ,พิมพ์ใจ,women.png,นเรศ,men.png,นเรศ,10,51,101,21,21,9,j,0.5776824000058696,None,,,,9,21,21,1,,,,,15.650367000023834,,,,,,,,,15.642685000086203,15.650367000023834,15.650367000023834,15.650367000023834,15.650367000023834,16.231446200050414,j,0.5776824000058696,None,,,,,,,,,,,,,,,,,,,,,,,test1,007,2025-09-26_09h46.01.019,Priming_gender,,2025.1.1,59.87357095283031,2025-09-26 09h46.10.824867 +0700,
นเรศ,พิมพ์ใจ,women.png,นเรศ,men.png,นเรศ,10,51,101,22,22,10,j,0.5525104999542236,None,,,,10,22,22,1,,,,,16.26726990006864,,,,,,,,,16.25853570003528,16.26726990006864,16.26726990006864,16.26726990006864,16.26726990006864,16.83162589999847,j,0.5525104999542236,None,,,,,,,,,,,,,,,,,,,,,,,test1,007,2025-09-26_09h46.01.019,Priming_gender,,2025.1.1,59.87357095283031,2025-09-26 09h46.10.824867 +0700,
กฤษณะ,กาญจนา,men.png,กฤษณะ,men.png,กฤษณะ,10,50,100,23,23,12,k,0.6102915999945253,None,,,,12,23,23,0,,,,,16.865831700037234,,,,,,,,,16.858542400063016,16.865831700037234,16.865831700037234,16.865831700037234,16.865831700037234,17.480688400100917,k,0.6102915999945253,None,,,,,,,,,,,,,,,,,,,,,,,test1,007,2025-09-26_09h46.01.019,Priming_gender,,2025.1.1,59.87357095283031,2025-09-26 09h46.10.824867 +0700,
นเรศ,พิมพ์ใจ,women.png,นเรศ,men.png,นเรศ,10,51,101,24,24,11,j,0.6654627000680193,None,,,,11,24,24,1,,,,,17.514922800008208,,,,,,,,,17.507750699995086,17.514922800008208,17.514922800008208,17.514922800008208,17.514922800008208,18.18171999999322,j,0.6654627000680193,None,,,,,,,,,,,,,,,,,,,,,,,test1,007,2025-09-26_09h46.01.019,Priming_gender,,2025.1.1,59.87357095283031,2025-09-26 09h46.10.824867 +0700,
นเรศ,พิมพ์ใจ,women.png,นเรศ,men.png,นเรศ,10,51,101,25,25,12,j,0.6005387000041083,None,,,,12,25,25,1,,,,,18.219130500103347,,,,,,,,,18.20991730003152,18.219130500103347,18.219130500103347,18.219130500103347,18.219130500103347,18.831522700027563,j,0.6005387000041083,None,,,,,,,,,,,,,,,,,,,,,,,test1,007,2025-09-26_09h46.01.019,Priming_gender,,2025.1.1,59.87357095283031,2025-09-26 09h46.10.824867 +0700,
กฤษณะ,กาญจนา,men.png,กฤษณะ,men.png,กฤษณะ,10,50,100,26,26,13,k,0.5286826998926699,None,,,,13,26,26,0,,,,,18.86684370005969,,,,,,,,,18.859307400067337,18.86684370005969,18.86684370005969,18.86684370005969,18.86684370005969,19.39729140000418,k,0.5286826998926699,None,,,,,,,,,,,,,,,,,,,,,,,test1,007,2025-09-26_09h46.01.019,Priming_gender,,2025.1.1,59.87357095283031,2025-09-26 09h46.10.824867 +0700,
นเรศ,พิมพ์ใจ,women.png,นเรศ,men.png,นเรศ,10,51,101,27,27,13,j,0.6670031000394374,None,,,,13,27,27,1,,,,,19.432871900033206,,,,,,,,,19.425162600004114,19.432871900033206,19.432871900033206,19.432871900033206,19.432871900033206,20.114437600015663,j,0.6670031000394374,None,,,,,,,,,,,,,,,,,,,,,,,test1,007,2025-09-26_09h46.01.019,Priming_gender,,2025.1.1,59.87357095283031,2025-09-26 09h46.10.824867 +0700,
กฤษณะ,กาญจนา,men.png,กฤษณะ,men.png,กฤษณะ,10,50,100,28,28,14,k,0.5718655999517068,None,,,,14,28,28,0,,,,,20.15181680000387,,,,,,,,,20.143539200071245,20.15181680000387,20.15181680000387,20.15181680000387,20.15181680000387,20.730658899992704,k,0.5718655999517068,None,,,,,,,,,,,,,,,,,,,,,,,test1,007,2025-09-26_09h46.01.019,Priming_gender,,2025.1.1,59.87357095283031,2025-09-26 09h46.10.824867 +0700,
กฤษณะ,กาญจนา,men.png,กฤษณะ,men.png,กฤษณะ,10,50,100,29,29,15,k,0.5955029999604449,None,,,,15,29,29,0,,,,,20.76814230007585,,,,,,,,,20.75929990003351,20.76814230007585,20.76814230007585,20.76814230007585,20.76814230007585,21.365482600056566,k,0.5955029999604449,None,,,,,,,,,,,,,,,,,,,,,,,test1,007,2025-09-26_09h46.01.019,Priming_gender,,2025.1.1,59.87357095283031,2025-09-26 09h46.10.824867 +0700,
นเรศ,พิมพ์ใจ,women.png,นเรศ,men.png,นเรศ,10,51,101,30,30,14,j,0.5945277999853715,None,,,,14,30,30,1,,,,,21.409457700094208,,,,,,,,,21.39925190003123,21.409457700094208,21.409457700094208,21.409457700094208,21.409457700094208,22.013871300034225,j,0.5945277999853715,None,,,,,,,,,,,,,,,,,,,,,,,test1,007,2025-09-26_09h46.01.019,Priming_gender,,2025.1.1,59.87357095283031,2025-09-26 09h46.10.824867 +0700,
กฤษณะ,กาญจนา,men.png,กฤษณะ,men.png,กฤษณะ,10,50,100,31,31,16,k,0.5592296000104398,None,,,,16,31,31,0,,,,,22.054502800107002,,,,,,,,,22.044825000106357,22.054502800107002,22.054502800107002,22.054502800107002,22.054502800107002,22.616190600092523,k,0.5592296000104398,None,,,,,,,,,,,,,,,,,,,,,,,test1,007,2025-09-26_09h46.01.019,Priming_gender,,2025.1.1,59.87357095283031,2025-09-26 09h46.10.824867 +0700,
กฤษณะ,กาญจนา,men.png,กฤษณะ,men.png,กฤษณะ,10,50,100,32,32,17,k,0.49910730007104576,None,,,,17,32,32,0,,,,,22.656550000072457,,,,,,,,,22.647786000045016,22.656550000072457,22.656550000072457,22.656550000072457,22.656550000072457,23.165159200085327,k,0.49910730007104576,None,,,,,,,,,,,,,,,,,,,,,,,test1,007,2025-09-26_09h46.01.019,Priming_gender,,2025.1.1,59.87357095283031,2025-09-26 09h46.10.824867 +0700,
นเรศ,พิมพ์ใจ,women.png,นเรศ,men.png,นเรศ,10,51,101,33,33,15,j,0.4948996000457555,None,,,,15,33,33,1,,,,,23.204109400045127,,,,,,,,,23.19562830007635,23.204109400045127,23.204109400045127,23.204109400045127,23.204109400045127,23.71384920005221,j,0.4948996000457555,None,,,,,,,,,,,,,,,,,,,,,,,test1,007,2025-09-26_09h46.01.019,Priming_gender,,2025.1.1,59.87357095283031,2025-09-26 09h46.10.824867 +0700,
กฤษณะ,กาญจนา,men.png,กฤษณะ,men.png,กฤษณะ,10,50,100,34,34,18,k,0.7222696000244468,None,,,,18,34,34,0,,,,,23.74490400007926,,,,,,,,,23.73802390007768,23.74490400007926,23.74490400007926,23.74490400007926,23.74490400007926,24.48022700008005,k,0.7222696000244468,None,,,,,,,,,,,,,,,,,,,,,,,test1,007,2025-09-26_09h46.01.019,Priming_gender,,2025.1.1,59.87357095283031,2025-09-26 09h46.10.824867 +0700,
นเรศ,พิมพ์ใจ,women.png,นเรศ,men.png,นเรศ,10,51,101,35,35,16,j,0.6235289999749511,None,,,,16,35,35,1,,,,,24.516491000074893,,,,,,,,,24.50872420007363,24.516491000074893,24.516491000074893,24.516491000074893,24.516491000074893,25.146914800046943,j,0.6235289999749511,None,,,,,,,,,,,,,,,,,,,,,,,test1,007,2025-09-26_09h46.01.019,Priming_gender,,2025.1.1,59.87357095283031,2025-09-26 09h46.10.824867 +0700,
นเรศ,พิมพ์ใจ,women.png,นเรศ,men.png,นเรศ,10,51,101,36,36,17,j,0.6020792999770492,None,,,,17,36,36,1,,,,,25.17751850001514,,,,,,,,,25.17124990001321,25.17751850001514,25.17751850001514,25.17751850001514,25.17751850001514,25.796690000104718,j,0.6020792999770492,None,,,,,,,,,,,,,,,,,,,,,,,test1,007,2025-09-26_09h46.01.019,Priming_gender,,2025.1.1,59.87357095283031,2025-09-26 09h46.10.824867 +0700,
กฤษณะ,กาญจนา,men.png,กฤษณะ,men.png,กฤษณะ,10,50,100,37,37,19,k,0.5263808999443427,None,,,,19,37,37,0,,,,,25.82869460002985,,,,,,,,,25.82278970000334,25.82869460002985,25.82869460002985,25.82869460002985,25.82869460002985,26.362850600038655,k,0.5263808999443427,None,,,,,,,,,,,,,,,,,,,,,,,test1,007,2025-09-26_09h46.01.019,Priming_gender,,2025.1.1,59.87357095283031,2025-09-26 09h46.10.824867 +0700,
นเรศ,พิมพ์ใจ,women.png,นเรศ,men.png,นเรศ,10,51,101,38,38,18,j,0.5988966999575496,None,,,,18,38,38,1,,,,,26.396726800012402,,,,,,,,,26.39049330004491,26.396726800012402,26.396726800012402,26.396726800012402,26.396726800012402,27.012523200013675,j,0.5988966999575496,None,,,,,,,,,,,,,,,,,,,,,,,test1,007,2025-09-26_09h46.01.019,Priming_gender,,2025.1.1,59.87357095283031,2025-09-26 09h46.10.824867 +0700,
นเรศ,พิมพ์ใจ,women.png,นเรศ,men.png,นเรศ,10,51,101,39,39,19,j,0.5551937000127509,None,,,,19,39,39,1,,,,,27.047894300078042,,,,,,,,,27.037021700059995,27.047894300078042,27.047894300078042,27.047894300078042,27.047894300078042,27.612995500094257,j,0.5551937000127509,None,,,,,,,,,,,,,,,,,,,,,,,test1,007,2025-09-26_09h46.01.019,Priming_gender,,2025.1.1,59.87357095283031,2025-09-26 09h46.10.824867 +0700,
,,,,,,,,,,,,,,,,,,,,,,,,,,,,,,,,,,,,,,,,,,,,27.613163600093685,27.63038030010648,27.63038030010648,28.864069300005212,space,1.2212664000689983,None,,,,,,,,,,,,,,,,test1,007,2025-09-26_09h46.01.019,Priming_gender,,2025.1.1,59.87357095283031,2025-09-26 09h46.10.824867 +0700,
กฤษณะ,กาญจนา,men.png,กฤษณะ,men.png,กฤษณะ,10,50,100,0,0,0,,,,k,0.8528945998987183,None,,,,,0,0,0,0,28.94250910007395,,,,,,,,,,,,,,,,,,,,,,,,,28.912788600078784,28.94250910007395,28.94250910007395,28.94250910007395,28.94250910007395,28.94250910007395,28.94250910007395,29.178805300034583,29.245330700068735,29.812826800043695,k,0.8528945998987183,None,,,test1,007,2025-09-26_09h46.01.019,Priming_gender,,2025.1.1,59.87357095283031,2025-09-26 09h46.10.824867 +0700,
None,None,None,None,women.png,ชัยวัฒน์,11,54,124,1,1,0,,,,j,1.552898699999787,None,,,,,0,1,1,24,29.858429900021292,,,,,,,,,,,,,,,,,,,,,,,,,29.849539300077595,29.858429900021292,29.858429900021292,29.858429900021292,29.858429900021292,29.858429900021292,29.858429900021292,30.128455300000496,30.161591900046915,31.41335170005914,j,1.552898699999787,None,,,test1,007,2025-09-26_09h46.01.019,Priming_gender,,2025.1.1,59.87357095283031,2025-09-26 09h46.10.824867 +0700,
None,None,None,พิมพ์ใจ,men.png,พิมพ์ใจ,10,61,111,2,2,0,,,,k,1.5416576999705285,None,,,,,0,2,2,11,31.47036640008446,,,,,,,,,,,,,,,,,,,,,,,,,31.454128400073387,31.47036640008446,31.47036640008446,31.47036640008446,31.47036640008446,31.47036640008446,31.47036640008446,31.71397780010011,31.779613799997605,33.01439770008437,k,1.5416576999705285,None,,,test1,007,2025-09-26_09h46.01.019,Priming_gender,,2025.1.1,59.87357095283031,2025-09-26 09h46.10.824867 +0700,
None,None,None,วาสนา,men.png,วาสนา,10,62,112,3,3,0,,,,k,1.0838818999473006,None,,,,,0,3,3,12,33.06327909999527,,,,,,,,,,,,,,,,,,,,,,,,,33.049908000044525,33.06327909999527,33.06327909999527,33.06327909999527,33.06327909999527,33.06327909999527,33.06327909999527,33.31352260010317,33.36396700004116,34.16342220001388,k,1.0838818999473006,None,,,test1,007,2025-09-26_09h46.01.019,Priming_gender,,2025.1.1,59.87357095283031,2025-09-26 09h46.10.824867 +0700,
None,None,None,None,women.png,พิสิฐ,11,59,129,4,4,0,,,,j,1.1841450000647455,None,,,,,0,4,4,29,34.21111820009537,,,,,,,,,,,,,,,,,,,,,,,,,34.19883140001912,34.21111820009537,34.21111820009537,34.21111820009537,34.21111820009537,34.21111820009537,34.21111820009537,34.46351640007924,34.51367140002549,35.39716600009706,j,1.1841450000647455,None,,,test1,007,2025-09-26_09h46.01.019,Priming_gender,,2025.1.1,59.87357095283031,2025-09-26 09h46.10.824867 +0700,
None,None,None,None,women.png,จิตติมา,11,66,136,5,5,0,,,,j,1.2327766000526026,None,,,,,0,5,5,36,35.443818200030364,,,,,,,,,,,,,,,,,,,,,,,,,35.43150520010386,35.443818200030364,35.443818200030364,35.443818200030364,35.443818200030364,35.443818200030364,35.443818200030364,35.69685730000492,35.74684320006054,36.68031890003476,j,1.2327766000526026,None,,,test1,007,2025-09-26_09h46.01.019,Priming_gender,,2025.1.1,59.87357095283031,2025-09-26 09h46.10.824867 +0700,
None,None,None,None,women.png,กฤษณะ,11,50,120,6,6,0,,,,j,2.067082899971865,None,,,,,0,6,6,20,36.72055290010758,,,,,,,,,,,,,,,,,,,,,,,,,36.70837660005782,36.72055290010758,36.72055290010758,36.72055290010758,36.72055290010758,36.72055290010758,36.72055290010758,36.980506899999455,37.03067860007286,38.79774470010307,j,2.067082899971865,None,,,test1,007,2025-09-26_09h46.01.019,Priming_gender,,2025.1.1,59.87357095283031,2025-09-26 09h46.10.824867 +0700,
None,None,None,None,women.png,ปริญญา,11,55,125,7,7,0,,,,j,0.7821598999435082,None,,,,,0,7,7,25,38.85329790005926,,,,,,,,,,,,,,,,,,,,,,,,,38.83889680006541,38.85329790005926,38.85329790005926,38.85329790005926,38.85329790005926,38.85329790005926,38.85329790005926,39.11397120007314,39.163886000053026,39.64648640004452,j,0.7821598999435082,None,,,test1,007,2025-09-26_09h46.01.019,Priming_gender,,2025.1.1,59.87357095283031,2025-09-26 09h46.10.824867 +0700,
ปริญญา,อาภรณ์,None,ปริญญา,men.png,ปริญญา,10,55,105,8,8,0,,,,k,1.323504599975422,None,,,,,0,8,8,5,39.68811410001945,,,,,,,,,,,,,,,,,,,,,,,,,39.6758268000558,39.68811410001945,39.68811410001945,39.68811410001945,39.68811410001945,39.68811410001945,39.68811410001945,39.946773300063796,39.995875200023875,41.01348630001303,k,1.323504599975422,None,,,test1,007,2025-09-26_09h46.01.019,Priming_gender,,2025.1.1,59.87357095283031,2025-09-26 09h46.10.824867 +0700,
ศักดิ์สิทธิ์,สุนิสา,None,ศักดิ์สิทธิ์,men.png,ศักดิ์สิทธิ์,10,58,108,9,9,0,,,,k,0.6789461000589654,None,,,,,0,9,9,8,41.068602600018494,,,,,,,,,,,,,,,,,,,,,,,,,41.05515120003838,41.068602600018494,41.068602600018494,41.068602600018494,41.068602600018494,41.068602600018494,41.068602600018494,41.32886370003689,41.379373600007966,41.76320610009134,k,0.6789461000589654,None,,,test1,007,2025-09-26_09h46.01.019,Priming_gender,,2025.1.1,59.87357095283031,2025-09-26 09h46.10.824867 +0700,
None,None,None,None,women.png,ภูมิพัฒน์,11,56,126,10,10,0,,,,j,1.405253899982199,None,,,,,0,10,10,26,41.81378670001868,,,,,,,,,,,,,,,,,,,,,,,,,41.800092500052415,41.81378670001868,41.81378670001868,41.81378670001868,41.81378670001868,41.81378670001868,41.81378670001868,42.06312629999593,42.11233730008826,43.22822879999876,j,1.405253899982199,None,,,test1,007,2025-09-26_09h46.01.019,Priming_gender,,2025.1.1,59.87357095283031,2025-09-26 09h46.10.824867 +0700,
วรพล,วรรณา,None,วรพล,men.png,วรพล,10,57,107,11,11,0,,,,k,1.0723500000312924,None,,,,,0,11,11,7,43.26726590003818,,,,,,,,,,,,,,,,,,,,,,,,,43.256394000025466,43.26726590003818,43.26726590003818,43.26726590003818,43.26726590003818,43.26726590003818,43.26726590003818,43.53035340004135,43.57957400009036,44.34602390008513,k,1.0723500000312924,None,,,test1,007,2025-09-26_09h46.01.019,Priming_gender,,2025.1.1,59.87357095283031,2025-09-26 09h46.10.824867 +0700,
None,None,None,None,women.png,ปัทมา,11,69,139,12,12,0,,,,j,0.9592609999235719,None,,,,,0,12,12,39,44.38777970010415,,,,,,,,,,,,,,,,,,,,,,,,,44.37644960009493,44.38777970010415,44.38777970010415,44.38777970010415,44.38777970010415,44.38777970010415,44.38777970010415,44.646108300075866,44.695305600063875,45.36372890009079,j,0.9592609999235719,None,,,test1,007,2025-09-26_09h46.01.019,Priming_gender,,2025.1.1,59.87357095283031,2025-09-26 09h46.10.824867 +0700,
None,None,None,None,women.png,อรรถพล,11,53,123,13,13,0,,,,j,1.5581752000143752,None,,,,,0,13,13,23,45.42168240004685,,,,,,,,,,,,,,,,,,,,,,,,,45.40686149999965,45.42168240004685,45.42168240004685,45.42168240004685,45.42168240004685,45.42168240004685,45.42168240004685,45.6796852000989,45.73010120005347,46.98121340002399,j,1.5581752000143752,None,,,test1,007,2025-09-26_09h46.01.019,Priming_gender,,2025.1.1,59.87357095283031,2025-09-26 09h46.10.824867 +0700,
None,None,None,สุนิสา,men.png,สุนิสา,10,68,118,14,14,0,,,,k,1.0556372000137344,None,,,,,0,14,14,18,47.02734540007077,,,,,,,,,,,,,,,,,,,,,,,,,47.014395800069906,47.02734540007077,47.02734540007077,47.02734540007077,47.02734540007077,47.02734540007077,47.02734540007077,47.29579000000376,47.328291100100614,48.096370100043714,k,1.0556372000137344,None,,,test1,007,2025-09-26_09h46.01.019,Priming_gender,,2025.1.1,59.87357095283031,2025-09-26 09h46.10.824867 +0700,
None,None,None,จิตติมา,men.png,จิตติมา,10,66,116,15,15,0,,,,k,1.1317507999483496,None,,,,,0,15,15,16,48.13527420000173,,,,,,,,,,,,,,,,,,,,,,,,,48.12430920009501,48.13527420000173,48.13527420000173,48.13527420000173,48.13527420000173,48.13527420000173,48.13527420000173,48.412850800086744,48.44591930008028,49.279779500095174,k,1.1317507999483496,None,,,test1,007,2025-09-26_09h46.01.019,Priming_gender,,2025.1.1,59.87357095283031,2025-09-26 09h46.10.824867 +0700,
พิสิฐ,ปัทมา,None,พิสิฐ,men.png,พิสิฐ,10,59,109,16,16,0,,,,k,0.7139668999006972,None,,,,,0,16,16,9,49.32170710002538,,,,,,,,,,,,,,,,,,,,,,,,,49.3097433000803,49.32170710002538,49.32170710002538,49.32170710002538,49.32170710002538,49.32170710002538,49.32170710002538,49.59688379999716,49.62908930005506,50.04768210009206,k,0.7139668999006972,None,,,test1,007,2025-09-26_09h46.01.019,Priming_gender,,2025.1.1,59.87357095283031,2025-09-26 09h46.10.824867 +0700,
ภูมิพัฒน์,จิตติมา,None,ภูมิพัฒน์,men.png,ภูมิพัฒน์,10,56,106,17,17,0,,,,k,0.6615250000031665,None,,,,,0,17,17,6,50.09385080006905,,,,,,,,,,,,,,,,,,,,,,,,,50.08019130001776,50.09385080006905,50.09385080006905,50.09385080006905,50.09385080006905,50.09385080006905,50.09385080006905,50.362398600089364,50.39558880007826,50.761925200000405,k,0.6615250000031665,None,,,test1,007,2025-09-26_09h46.01.019,Priming_gender,,2025.1.1,59.87357095283031,2025-09-26 09h46.10.824867 +0700,
None,None,None,None,women.png,พิมพ์ใจ,11,61,131,18,18,0,,,,j,0.7122235000133514,None,,,,,0,18,18,31,50.79494080005679,,,,,,,,,,,,,,,,,,,,,,,,,50.786030500079505,50.79494080005679,50.79494080005679,50.79494080005679,50.79494080005679,50.79494080005679,50.79494080005679,51.062349000014365,51.095837700064294,51.512288900092244,j,0.7122235000133514,None,,,test1,007,2025-09-26_09h46.01.019,Priming_gender,,2025.1.1,59.87357095283031,2025-09-26 09h46.10.824867 +0700,
None,None,None,วรรณา,men.png,วรรณา,10,67,117,19,19,0,,,,k,1.2580912000266835,None,,,,,0,19,19,17,51.545134700019844,,,,,,,,,,,,,,,,,,,,,,,,,51.535883600008674,51.545134700019844,51.545134700019844,51.545134700019844,51.545134700019844,51.545134700019844,51.545134700019844,51.82793270004913,51.84451560000889,52.81257760000881,k,1.2580912000266835,None,,,test1,007,2025-09-26_09h46.01.019,Priming_gender,,2025.1.1,59.87357095283031,2025-09-26 09h46.10.824867 +0700,
None,None,None,None,women.png,นเรศ,11,51,121,20,20,0,,,,j,1.2177050999598578,None,,,,,0,20,20,21,52.84963599999901,,,,,,,,,,,,,,,,,,,,,,,,,52.83836739999242,52.84963599999901,52.84963599999901,52.84963599999901,52.84963599999901,52.84963599999901,52.84963599999901,53.11152180004865,53.160242500016466,54.07774590002373,j,1.2177050999598578,None,,,test1,007,2025-09-26_09h46.01.019,Priming_gender,,2025.1.1,59.87357095283031,2025-09-26 09h46.10.824867 +0700,
None,None,None,None,women.png,ธนพล,11,52,122,21,21,0,,,,j,1.0126588999992236,None,,,,,0,21,21,22,54.11009279999416,,,,,,,,,,,,,,,,,,,,,,,,,54.1013506000163,54.11009279999416,54.11009279999416,54.11009279999416,54.11009279999416,54.11009279999416,54.11009279999416,54.39378120005131,54.41029510006774,55.12766630004626,j,1.0126588999992236,None,,,test1,007,2025-09-26_09h46.01.019,Priming_gender,,2025.1.1,59.87357095283031,2025-09-26 09h46.10.824867 +0700,
None,None,None,กาญจนา,men.png,กาญจนา,10,60,110,22,22,0,,,,k,1.7979331000242382,None,,,,,0,22,22,10,55.16497560008429,,,,,,,,,,,,,,,,,,,,,,,,,55.15469370002393,55.16497560008429,55.16497560008429,55.16497560008429,55.16497560008429,55.16497560008429,55.16497560008429,55.44355780002661,55.47696580004413,56.97813830000814,k,1.7979331000242382,None,,,test1,007,2025-09-26_09h46.01.019,Priming_gender,,2025.1.1,59.87357095283031,2025-09-26 09h46.10.824867 +0700,
None,None,None,None,women.png,วาสนา,11,62,132,23,23,0,,,,j,1.4333439000183716,None,,,,,0,23,23,32,57.017858600011095,,,,,,,,,,,,,,,,,,,,,,,,,57.00565980002284,57.017858600011095,57.017858600011095,57.017858600011095,57.017858600011095,57.017858600011095,57.017858600011095,57.278057600022294,57.32897640008014,58.46196210000198,j,1.4333439000183716,None,,,test1,007,2025-09-26_09h46.01.019,Priming_gender,,2025.1.1,59.87357095283031,2025-09-26 09h46.10.824867 +0700,
ธนพล,วาสนา,None,ธนพล,men.png,ธนพล,10,52,102,24,24,0,,,,k,0.7949356000171974,None,,,,,0,24,24,2,58.50387690006755,,,,,,,,,,,,,,,,,,,,,,,,,58.49237290001474,58.50387690006755,58.50387690006755,58.50387690006755,58.50387690006755,58.50387690006755,58.50387690006755,58.777750200009905,58.81119420006871,59.311596500105225,k,0.7949356000171974,None,,,test1,007,2025-09-26_09h46.01.019,Priming_gender,,2025.1.1,59.87357095283031,2025-09-26 09h46.10.824867 +0700,
None,None,None,None,women.png,สุนิสา,11,68,138,25,25,0,,,,j,0.601910800090991,None,,,,,0,25,25,38,59.35334090003744,,,,,,,,,,,,,,,,,,,,,,,,,59.34040350001305,59.35334090003744,59.35334090003744,59.35334090003744,59.35334090003744,59.35334090003744,59.35334090003744,59.611981700058095,59.66180230001919,59.96262410003692,j,0.601910800090991,None,,,test1,007,2025-09-26_09h46.01.019,Priming_gender,,2025.1.1,59.87357095283031,2025-09-26 09h46.10.824867 +0700,
None,None,None,อาภรณ์,men.png,อาภรณ์,10,65,115,26,26,0,,,,k,1.020486900000833,None,,,,,0,26,26,15,60.006611500051804,,,,,,,,,,,,,,,,,,,,,,,,,59.995388800045475,60.006611500051804,60.006611500051804,60.006611500051804,60.006611500051804,60.006611500051804,60.006611500051804,60.27857700001914,60.31187520001549,61.02903500001412,k,1.020486900000833,None,,,test1,007,2025-09-26_09h46.01.019,Priming_gender,,2025.1.1,59.87357095283031,2025-09-26 09h46.10.824867 +0700,
None,None,None,None,women.png,กาญจนา,11,60,130,27,27,0,,,,j,0.8698947000084445,None,,,,,0,27,27,30,61.06980030005798,,,,,,,,,,,,,,,,,,,,,,,,,61.05858260008972,61.06980030005798,61.06980030005798,61.06980030005798,61.06980030005798,61.06980030005798,61.06980030005798,61.32899740000721,61.37806110002566,61.9444555999944,j,0.8698947000084445,None,,,test1,007,2025-09-26_09h46.01.019,Priming_gender,,2025.1.1,59.87357095283031,2025-09-26 09h46.10.824867 +0700,
None,None,None,None,women.png,วรรณา,11,67,137,28,28,0,,,,j,0.6111051000189036,None,,,,,0,28,28,37,61.98440660000779,,,,,,,,,,,,,,,,,,,,,,,,,61.973330500070006,61.98440660000779,61.98440660000779,61.98440660000779,61.98440660000779,61.98440660000779,61.98440660000779,62.24590140010696,62.29502060008235,62.613024300080724,j,0.6111051000189036,None,,,test1,007,2025-09-26_09h46.01.019,Priming_gender,,2025.1.1,59.87357095283031,2025-09-26 09h46.10.824867 +0700,
อรรถพล,สุพัตรา,None,อรรถพล,men.png,อรรถพล,10,53,103,29,29,0,,,,k,1.2847426999360323,None,,,,,0,29,29,3,62.65432260010857,,,,,,,,,,,,,,,,,,,,,,,,,62.64357920002658,62.65432260010857,62.65432260010857,62.65432260010857,62.65432260010857,62.65432260010857,62.65432260010857,62.9281023000367,62.96160320006311,63.945506400079466,k,1.2847426999360323,None,,,test1,007,2025-09-26_09h46.01.019,Priming_gender,,2025.1.1,59.87357095283031,2025-09-26 09h46.10.824867 +0700,
None,None,None,None,women.png,สุพัตรา,11,63,133,30,30,0,,,,j,0.9605030999518931,None,,,,,0,30,30,33,63.98659109999426,,,,,,,,,,,,,,,,,,,,,,,,,63.975688000093214,63.98659109999426,63.98659109999426,63.98659109999426,63.98659109999426,63.98659109999426,63.98659109999426,64.26051640009973,64.29389279999305,64.96236850006972,j,0.9605030999518931,None,,,test1,007,2025-09-26_09h46.01.019,Priming_gender,,2025.1.1,59.87357095283031,2025-09-26 09h46.10.824867 +0700,
None,None,None,ศิริพร,men.png,ศิริพร,10,64,114,31,31,0,,,,k,1.1299707000143826,None,,,,,0,31,31,14,65.00063500006218,,,,,,,,,,,,,,,,,,,,,,,,,64.99030750000384,65.00063500006218,65.00063500006218,65.00063500006218,65.00063500006218,65.00063500006218,65.00063500006218,65.26264950004406,65.3125096000731,66.14718790003099,k,1.1299707000143826,None,,,test1,007,2025-09-26_09h46.01.019,Priming_gender,,2025.1.1,59.87357095283031,2025-09-26 09h46.10.824867 +0700,
None,None,None,ปัทมา,men.png,ปัทมา,10,69,119,32,32,0,,,,k,1.1476462000282481,None,,,,,0,32,32,19,66.21777290001046,,,,,,,,,,,,,,,,,,,,,,,,,66.17455550003797,66.21777290001046,66.21777290001046,66.21777290001046,66.21777290001046,66.21777290001046,66.21777290001046,66.45995190006215,66.52682290005032,67.37732100009453,k,1.1476462000282481,None,,,test1,007,2025-09-26_09h46.01.019,Priming_gender,,2025.1.1,59.87357095283031,2025-09-26 09h46.10.824867 +0700,
None,None,None,None,women.png,ศักดิ์สิทธิ์,11,58,128,33,33,0,,,,j,1.6912403999594972,None,,,,,0,33,33,28,67.41580950003117,,,,,,,,,,,,,,,,,,,,,,,,,67.40260960010346,67.41580950003117,67.41580950003117,67.41580950003117,67.41580950003117,67.41580950003117,67.41580950003117,67.69305710005574,67.72609720006585,69.10984080005437,j,1.6912403999594972,None,,,test1,007,2025-09-26_09h46.01.019,Priming_gender,,2025.1.1,59.87357095283031,2025-09-26 09h46.10.824867 +0700,
ชัยวัฒน์,ศิริพร,None,ชัยวัฒน์,men.png,ชัยวัฒน์,10,54,104,34,34,0,,,,k,0.9519302999833599,None,,,,,0,34,34,4,69.14709310000762,,,,,,,,,,,,,,,,,,,,,,,,,69.135809600004,69.14709310000762,69.14709310000762,69.14709310000762,69.14709310000762,69.14709310000762,69.14709310000762,69.4261714000022,69.46083290001843,70.1097238000948,k,0.9519302999833599,None,,,test1,007,2025-09-26_09h46.01.019,Priming_gender,,2025.1.1,59.87357095283031,2025-09-26 09h46.10.824867 +0700,
None,None,None,None,women.png,อาภรณ์,11,65,135,35,35,0,,,,j,0.9498560999054462,None,,,,,0,35,35,35,70.1413466000231,,,,,,,,,,,,,,,,,,,,,,,,,70.13290960004088,70.1413466000231,70.1413466000231,70.1413466000231,70.1413466000231,70.1413466000231,70.1413466000231,70.40923140000086,70.44275650009513,71.09297710005194,j,0.9498560999054462,None,,,test1,007,2025-09-26_09h46.01.019,Priming_gender,,2025.1.1,59.87357095283031,2025-09-26 09h46.10.824867 +0700,
None,None,None,สุพัตรา,men.png,สุพัตรา,10,63,113,36,36,0,,,,k,1.0061696000630036,None,,,,,0,36,36,13,71.12460219999775,,,,,,,,,,,,,,,,,,,,,,,,,71.11642140010372,71.12460219999775,71.12460219999775,71.12460219999775,71.12460219999775,71.12460219999775,71.12460219999775,71.40915150009096,71.4258007000899,72.14298300002702,k,1.0061696000630036,None,,,test1,007,2025-09-26_09h46.01.019,Priming_gender,,2025.1.1,59.87357095283031,2025-09-26 09h46.10.824867 +0700,
None,None,None,None,women.png,ศิริพร,11,64,134,37,37,0,,,,j,0.9298588000237942,None,,,,,0,37,37,34,72.17732930008788,,,,,,,,,,,,,,,,,,,,,,,,,72.16743670008145,72.17732930008788,72.17732930008788,72.17732930008788,72.17732930008788,72.17732930008788,72.17732930008788,72.45887640002184,72.49268330004998,73.10965590004344,j,0.9298588000237942,None,,,test1,007,2025-09-26_09h46.01.019,Priming_gender,,2025.1.1,59.87357095283031,2025-09-26 09h46.10.824867 +0700,
นเรศ,พิมพ์ใจ,women.png,นเรศ,men.png,นเรศ,10,51,101,38,38,0,,,,k,1.1779787000268698,None,,,,,0,38,38,1,73.14509590005036,,,,,,,,,,,,,,,,,,,,,,,,,73.13202450005338,73.14509590005036,73.14509590005036,73.14509590005036,73.14509590005036,73.14509590005036,73.14509590005036,73.41293069999665,73.44592990004458,74.32794340001419,k,1.1779787000268698,None,,,test1,007,2025-09-26_09h46.01.019,Priming_gender,,2025.1.1,59.87357095283031,2025-09-26 09h46.10.824867 +0700,
None,None,None,None,women.png,วรพล,11,57,127,39,39,0,,,,j,0.8743353000609204,None,,,,,0,39,39,27,74.36037720006425,,,,,,,,,,,,,,,,,,,,,,,,,74.34814420004841,74.36037720006425,74.36037720006425,74.36037720006425,74.36037720006425,74.36037720006425,74.36037720006425,74.6425753000658,74.67555830010679,75.24341680004727,j,0.8743353000609204,None,,,test1,007,2025-09-26_09h46.01.019,Priming_gender,,2025.1.1,59.87357095283031,2025-09-26 09h46.10.824867 +0700,
None,None,None,วรรณา,men.png,วรรณา,10,67,117,40,0,1,,,,k,1.2280244000721723,None,,,,,1,0,40,17,75.27059660002124,,,,,,,,,,,,,,,,,,,,,,,,,75.26281460002065,75.27059660002124,75.27059660002124,75.27059660002124,75.27059660002124,75.27059660002124,75.27059660002124,75.54584500007331,75.5755939000519,76.50908950006124,k,1.2280244000721723,None,,,test1,007,2025-09-26_09h46.01.019,Priming_gender,,2025.1.1,59.87357095283031,2025-09-26 09h46.10.824867 +0700,
None,None,None,None,women.png,ภูมิพัฒน์,11,56,126,41,1,1,,,,j,0.8902831999585032,None,,,,,1,1,41,26,76.536800700007,,,,,,,,,,,,,,,,,,,,,,,,,76.52843470009975,76.536800700007,76.536800700007,76.536800700007,76.536800700007,76.536800700007,76.536800700007,76.80886109999847,76.84223609999754,77.44076560006943,j,0.8902831999585032,None,,,test1,007,2025-09-26_09h46.01.019,Priming_gender,,2025.1.1,59.87357095283031,2025-09-26 09h46.10.824867 +0700,
ชัยวัฒน์,ศิริพร,None,ชัยวัฒน์,men.png,ชัยวัฒน์,10,54,104,42,2,1,,,,k,1.2868156000040472,None,,,,,1,2,42,4,77.46787839999888,,,,,,,,,,,,,,,,,,,,,,,,,77.46011400001589,77.46787839999888,77.46787839999888,77.46787839999888,77.46787839999888,77.46787839999888,77.46787839999888,77.74376370001119,77.77519720001146,78.7588953000959,k,1.2868156000040472,None,,,test1,007,2025-09-26_09h46.01.019,Priming_gender,,2025.1.1,59.87357095283031,2025-09-26 09h46.10.824867 +0700,
None,None,None,จิตติมา,men.png,จิตติมา,10,66,116,43,3,1,,,,k,1.1025367999682203,None,,,,,1,3,43,16,78.78874380001798,,,,,,,,,,,,,,,,,,,,,,,,,78.77834800002165,78.78874380001798,78.78874380001798,78.78874380001798,78.78874380001798,78.78874380001798,78.78874380001798,79.05871830007527,79.09190030000173,79.8925453000702,k,1.1025367999682203,None,,,test1,007,2025-09-26_09h46.01.019,Priming_gender,,2025.1.1,59.87357095283031,2025-09-26 09h46.10.824867 +0700,
พิสิฐ,ปัทมา,None,พิสิฐ,men.png,พิสิฐ,10,59,109,44,4,1,,,,j,1.1035845000296831,None,,,,,1,4,44,9,79.92330580006819,,,,,,,,,,,,,,,,,,,,,,,,,79.91482280008495,79.92330580006819,79.92330580006819,79.92330580006819,79.92330580006819,79.92330580006819,79.92330580006819,80.20924340002239,80.2259465000825,81.04231780010741,j,1.1035845000296831,None,,,test1,007,2025-09-26_09h46.01.019,Priming_gender,,2025.1.1,59.87357095283031,2025-09-26 09h46.10.824867 +0700,
None,None,None,None,women.png,อาภรณ์,11,65,135,45,5,1,,,,j,1.7793042999692261,None,,,,,1,5,45,35,81.07160600007046,,,,,,,,,,,,,,,,,,,,,,,,,81.06239930004813,81.07160600007046,81.07160600007046,81.07160600007046,81.07160600007046,81.07160600007046,81.07160600007046,81.35843180003576,81.37497480004095,82.85889390006196,j,1.7793042999692261,None,,,test1,007,2025-09-26_09h46.01.019,Priming_gender,,2025.1.1,59.87357095283031,2025-09-26 09h46.10.824867 +0700,
None,None,None,None,women.png,วรพล,11,57,127,46,6,1,,,,j,0.7973873000591993,None,,,,,1,6,46,27,82.8857643000083,,,,,,,,,,,,,,,,,,,,,,,,,82.87774390005507,82.8857643000083,82.8857643000083,82.8857643000083,82.8857643000083,82.8857643000083,82.8857643000083,83.15851209999528,83.19166210002732,83.69261990010273,j,0.7973873000591993,None,,,test1,007,2025-09-26_09h46.01.019,Priming_gender,,2025.1.1,59.87357095283031,2025-09-26 09h46.10.824867 +0700,
None,None,None,None,women.png,จิตติมา,11,66,136,47,7,1,,,,j,1.03299540001899,None,,,,,1,7,47,36,83.72188480000477,,,,,,,,,,,,,,,,,,,,,,,,,83.71400250005536,83.72188480000477,83.72188480000477,83.72188480000477,83.72188480000477,83.72188480000477,83.72188480000477,84.0086151000578,84.02500300004613,84.75894780003,j,1.03299540001899,None,,,test1,007,2025-09-26_09h46.01.019,Priming_gender,,2025.1.1,59.87357095283031,2025-09-26 09h46.10.824867 +0700,
None,None,None,None,women.png,ศักดิ์สิทธิ์,11,58,128,48,8,1,,,,j,1.1597919999621809,None,,,,,1,8,48,28,84.79629339999519,,,,,,,,,,,,,,,,,,,,,,,,,84.78487830003724,84.79629339999519,84.79629339999519,84.79629339999519,84.79629339999519,84.79629339999519,84.79629339999519,85.05830900010187,85.1081854000222,85.96068080002442,j,1.1597919999621809,None,,,test1,007,2025-09-26_09h46.01.019,Priming_gender,,2025.1.1,59.87357095283031,2025-09-26 09h46.10.824867 +0700,
None,None,None,วาสนา,men.png,วาสนา,10,62,112,49,9,1,,,,k,1.6803133999928832,None,,,,,1,9,49,12,86.00313770002685,,,,,,,,,,,,,,,,,,,,,,,,,85.99102720001247,86.00313770002685,86.00313770002685,86.00313770002685,86.00313770002685,86.00313770002685,86.00313770002685,86.27698040008545,86.30982140009291,87.69354140001815,k,1.6803133999928832,None,,,test1,007,2025-09-26_09h46.01.019,Priming_gender,,2025.1.1,59.87357095283031,2025-09-26 09h46.10.824867 +0700,
None,None,None,None,women.png,วาสนา,11,62,132,50,10,1,,,,j,1.2776664999546483,None,,,,,1,10,50,32,87.73331690009218,,,,,,,,,,,,,,,,,,,,,,,,,87.72123660007492,87.73331690009218,87.73331690009218,87.73331690009218,87.73331690009218,87.73331690009218,87.73331690009218,87.99276290007401,88.04361140006222,89.02651910006534,j,1.2776664999546483,None,,,test1,007,2025-09-26_09h46.01.019,Priming_gender,,2025.1.1,59.87357095283031,2025-09-26 09h46.10.824867 +0700,
None,None,None,สุนิสา,men.png,สุนิสา,10,68,118,51,11,1,,,,k,1.578025700058788,None,,,,,1,11,51,18,89.06541670009028,,,,,,,,,,,,,,,,,,,,,,,,,89.05351770005655,89.06541670009028,89.06541670009028,89.06541670009028,89.06541670009028,89.06541670009028,89.06541670009028,89.32622980000451,89.37605380010791,90.66003920009825,k,1.578025700058788,None,,,test1,007,2025-09-26_09h46.01.019,Priming_gender,,2025.1.1,59.87357095283031,2025-09-26 09h46.10.824867 +0700,
อรรถพล,สุพัตรา,None,อรรถพล,men.png,อรรถพล,10,53,103,52,12,1,,,,k,1.0498364000814036,None,,,,,1,12,52,3,90.6973602999933,,,,,,,,,,,,,,,,,,,,,,,,,90.68608550005592,90.6973602999933,90.6973602999933,90.6973602999933,90.6973602999933,90.6973602999933,90.6973602999933,90.9617308001034,91.01104170002509,91.75923650001641,k,1.0498364000814036,None,,,test1,007,2025-09-26_09h46.01.019,Priming_gender,,2025.1.1,59.87357095283031,2025-09-26 09h46.10.824867 +0700,
None,None,None,None,women.png,วรรณา,11,67,137,53,13,1,,,,j,1.2780318000586703,None,,,,,1,13,53,37,91.79941110010259,,,,,,,,,,,,,,,,,,,,,,,,,91.78552220005076,91.79941110010259,91.79941110010259,91.79941110010259,91.79941110010259,91.79941110010259,91.79941110010259,92.06104140006937,92.10945270000957,93.0935169000877,j,1.2780318000586703,None,,,test1,007,2025-09-26_09h46.01.019,Priming_gender,,2025.1.1,59.87357095283031,2025-09-26 09h46.10.824867 +0700,
None,None,None,พิมพ์ใจ,men.png,พิมพ์ใจ,10,61,111,54,14,1,,,,k,1.190897100022994,None,,,,,1,14,54,11,93.13275970006362,,,,,,,,,,,,,,,,,,,,,,,,,93.12172819999978,93.13275970006362,93.13275970006362,93.13275970006362,93.13275970006362,93.13275970006362,93.13275970006362,93.40925860009156,93.44178890006151,94.32595860003494,k,1.190897100022994,None,,,test1,007,2025-09-26_09h46.01.019,Priming_gender,,2025.1.1,59.87357095283031,2025-09-26 09h46.10.824867 +0700,
None,None,None,None,women.png,ปริญญา,11,55,125,55,15,1,,,,j,2.694422599975951,None,,,,,1,15,55,25,94.36536020005587,,,,,,,,,,,,,,,,,,,,,,,,,94.35271960007958,94.36536020005587,94.36536020005587,94.36536020005587,94.36536020005587,94.36536020005587,94.36536020005587,94.6267904000124,94.67699670000002,97.07565900008194,j,2.694422599975951,None,,,test1,007,2025-09-26_09h46.01.019,Priming_gender,,2025.1.1,59.87357095283031,2025-09-26 09h46.10.824867 +0700,
None,None,None,None,women.png,นเรศ,11,51,121,56,16,1,,,,j,1.2360156000358984,None,,,,,1,16,56,21,97.11971009999979,,,,,,,,,,,,,,,,,,,,,,,,,97.10311140003614,97.11971009999979,97.11971009999979,97.11971009999979,97.11971009999979,97.11971009999979,97.11971009999979,97.37786370003596,97.42806790000759,98.35972900001798,j,1.2360156000358984,None,,,test1,007,2025-09-26_09h46.01.019,Priming_gender,,2025.1.1,59.87357095283031,2025-09-26 09h46.10.824867 +0700,
None,None,None,None,women.png,กฤษณะ,11,50,120,57,17,1,,,,j,1.1747734000673518,None,,,,,1,17,57,20,98.39802070008591,,,,,,,,,,,,,,,,,,,,,,,,,98.38601560005918,98.39802070008591,98.39802070008591,98.39802070008591,98.39802070008591,98.39802070008591,98.39802070008591,98.65990290010814,98.70955810009036,99.57608780008741,j,1.1747734000673518,None,,,test1,007,2025-09-26_09h46.01.019,Priming_gender,,2025.1.1,59.87357095283031,2025-09-26 09h46.10.824867 +0700,
None,None,None,None,women.png,กาญจนา,11,60,130,58,18,1,,,,j,1.1067024000221863,None,,,,,1,18,58,30,99.61759480007458,,,,,,,,,,,,,,,,,,,,,,,,,99.6035521000158,99.61759480007458,99.61759480007458,99.61759480007458,99.61759480007458,99.61759480007458,99.61759480007458,99.87677450000774,99.92781700007617,100.72586790006608,j,1.1067024000221863,None,,,test1,007,2025-09-26_09h46.01.019,Priming_gender,,2025.1.1,59.87357095283031,2025-09-26 09h46.10.824867 +0700,
None,None,None,None,women.png,ชัยวัฒน์,11,54,124,59,19,1,,,,j,1.461829699925147,None,,,,,1,19,59,24,100.7650359000545,,,,,,,,,,,,,,,,,,,,,,,,,100.75250950001646,100.7650359000545,100.7650359000545,100.7650359000545,100.7650359000545,100.7650359000545,100.7650359000545,101.02544190001208,101.07681830006186,102.24249160010368,j,1.461829699925147,None,,,test1,007,2025-09-26_09h46.01.019,Priming_gender,,2025.1.1,59.87357095283031,2025-09-26 09h46.10.824867 +0700,
None,None,None,None,women.png,พิสิฐ,11,59,129,60,20,1,,,,j,1.177315799985081,None,,,,,1,20,60,29,102.2821336000925,,,,,,,,,,,,,,,,,,,,,,,,,102.26916660007555,102.2821336000925,102.2821336000925,102.2821336000925,102.2821336000925,102.2821336000925,102.2821336000925,102.54202380008064,102.59211560001131,103.47600390005391,j,1.177315799985081,None,,,test1,007,2025-09-26_09h46.01.019,Priming_gender,,2025.1.1,59.87357095283031,2025-09-26 09h46.10.824867 +0700,
None,None,None,อาภรณ์,men.png,อาภรณ์,10,65,115,61,21,1,,,,k,0.8724850000580773,None,,,,,1,21,61,15,103.51515019999351,,,,,,,,,,,,,,,,,,,,,,,,,103.50302450009622,103.51515019999351,103.51515019999351,103.51515019999351,103.51515019999351,103.51515019999351,103.51515019999351,103.77637910004705,103.82561580010224,104.39185620006174,k,0.8724850000580773,None,,,test1,007,2025-09-26_09h46.01.019,Priming_gender,,2025.1.1,59.87357095283031,2025-09-26 09h46.10.824867 +0700,
None,None,None,None,women.png,ธนพล,11,52,122,62,22,1,,,,j,1.5108900000341237,None,,,,,1,22,62,22,104.42912420001812,,,,,,,,,,,,,,,,,,,,,,,,,104.41843180009164,104.42912420001812,104.42912420001812,104.42912420001812,104.42912420001812,104.42912420001812,104.42912420001812,104.6926101000281,104.74351570010185,105.94256260001566,j,1.5108900000341237,None,,,test1,007,2025-09-26_09h46.01.019,Priming_gender,,2025.1.1,59.87357095283031,2025-09-26 09h46.10.824867 +0700,
ธนพล,วาสนา,None,ธนพล,men.png,ธนพล,10,52,102,63,23,1,,,,k,1.5423016999848187,None,,,,,1,23,63,2,105.9811896000756,,,,,,,,,,,,,,,,,,,,,,,,,105.96911880001426,105.9811896000756,105.9811896000756,105.9811896000756,105.9811896000756,105.9811896000756,105.9811896000756,106.25955240009353,106.29269390006084,107.52551220008172,k,1.5423016999848187,None,,,test1,007,2025-09-26_09h46.01.019,Priming_gender,,2025.1.1,59.87357095283031,2025-09-26 09h46.10.824867 +0700,
None,None,None,None,women.png,ปัทมา,11,69,139,64,24,1,,,,j,1.0458776999730617,None,,,,,1,24,64,39,107.56503040005919,,,,,,,,,,,,,,,,,,,,,,,,,107.55355220008641,107.56503040005919,107.56503040005919,107.56503040005919,107.56503040005919,107.56503040005919,107.56503040005919,107.82655830006115,107.8753423000453,108.6252652000403,j,1.0458776999730617,None,,,test1,007,2025-09-26_09h46.01.019,Priming_gender,,2025.1.1,59.87357095283031,2025-09-26 09h46.10.824867 +0700,
None,None,None,None,women.png,อรรถพล,11,53,123,65,25,1,,,,j,1.2724555999739096,None,,,,,1,25,65,23,108.66726780007593,,,,,,,,,,,,,,,,,,,,,,,,,108.6534079000121,108.66726780007593,108.66726780007593,108.66726780007593,108.66726780007593,108.66726780007593,108.66726780007593,108.94140840007458,108.9744601000566,109.94212860008702,j,1.2724555999739096,None,,,test1,007,2025-09-26_09h46.01.019,Priming_gender,,2025.1.1,59.87357095283031,2025-09-26 09h46.10.824867 +0700,
None,None,None,ศิริพร,men.png,ศิริพร,10,64,114,66,26,1,,,,k,1.1905373999616131,None,,,,,1,26,66,14,109.98077530006412,,,,,,,,,,,,,,,,,,,,,,,,,109.96846520004328,109.98077530006412,109.98077530006412,109.98077530006412,109.98077530006412,109.98077530006412,109.98077530006412,110.25846410007216,110.29183290002402,111.17504890006967,k,1.1905373999616131,None,,,test1,007,2025-09-26_09h46.01.019,Priming_gender,,2025.1.1,59.87357095283031,2025-09-26 09h46.10.824867 +0700,
None,None,None,ปัทมา,men.png,ปัทมา,10,69,119,67,27,1,,,,k,1.2858812999911606,None,,,,,1,27,67,19,111.21361420000903,,,,,,,,,,,,,,,,,,,,,,,,,111.20204340002965,111.21361420000903,111.21361420000903,111.21361420000903,111.21361420000903,111.21361420000903,111.21361420000903,111.49161370005459,111.52531340008136,112.50834810000379,k,1.2858812999911606,None,,,test1,007,2025-09-26_09h46.01.019,Priming_gender,,2025.1.1,59.87357095283031,2025-09-26 09h46.10.824867 +0700,
None,None,None,None,women.png,สุพัตรา,11,63,133,68,28,1,,,,j,0.974930900032632,None,,,,,1,28,68,33,112.54804890009109,,,,,,,,,,,,,,,,,,,,,,,,,112.53534470009618,112.54804890009109,112.54804890009109,112.54804890009109,112.54804890009109,112.54804890009109,112.54804890009109,112.8239792000968,112.85742140002549,113.52530700003263,j,0.974930900032632,None,,,test1,007,2025-09-26_09h46.01.019,Priming_gender,,2025.1.1,59.87357095283031,2025-09-26 09h46.10.824867 +0700,
None,None,None,None,women.png,สุนิสา,11,68,138,69,29,1,,,,j,0.8878284000093117,None,,,,,1,29,69,38,113.56322610005736,,,,,,,,,,,,,,,,,,,,,,,,,113.55223930010106,113.56322610005736,113.56322610005736,113.56322610005736,113.56322610005736,113.56322610005736,113.56322610005736,113.82648760010488,113.87543940008618,114.45873529999517,j,0.8878284000093117,None,,,test1,007,2025-09-26_09h46.01.019,Priming_gender,,2025.1.1,59.87357095283031,2025-09-26 09h46.10.824867 +0700,
None,None,None,None,women.png,ศิริพร,11,64,134,70,30,1,,,,j,0.8359664999879897,None,,,,,1,30,70,34,114.49543710006401,,,,,,,,,,,,,,,,,,,,,,,,,114.48509050009307,114.49543710006401,114.49543710006401,114.49543710006401,114.49543710006401,114.49543710006401,114.49543710006401,114.75966570002493,114.80964039999526,115.34198470006231,j,0.8359664999879897,None,,,test1,007,2025-09-26_09h46.01.019,Priming_gender,,2025.1.1,59.87357095283031,2025-09-26 09h46.10.824867 +0700,
None,None,None,สุพัตรา,men.png,สุพัตรา,10,63,113,71,31,1,,,,j,0.9760858999798074,None,,,,,1,31,71,13,115.37994380004238,,,,,,,,,,,,,,,,,,,,,,,,,115.36866620008368,115.37994380004238,115.37994380004238,115.37994380004238,115.37994380004238,115.37994380004238,115.37994380004238,115.64297310006805,115.69159950001631,116.35833660000935,j,0.9760858999798074,None,,,test1,007,2025-09-26_09h46.01.019,Priming_gender,,2025.1.1,59.87357095283031,2025-09-26 09h46.10.824867 +0700,
ศักดิ์สิทธิ์,สุนิสา,None,ศักดิ์สิทธิ์,men.png,ศักดิ์สิทธิ์,10,58,108,72,32,1,,,,k,1.1293966999510303,None,,,,,1,32,72,8,116.3946441001026,,,,,,,,,,,,,,,,,,,,,,,,,116.38488800008781,116.3946441001026,116.3946441001026,116.3946441001026,116.3946441001026,116.3946441001026,116.3946441001026,116.67475280002691,116.70732160005718,117.52528090006672,k,1.1293966999510303,None,,,test1,007,2025-09-26_09h46.01.019,Priming_gender,,2025.1.1,59.87357095283031,2025-09-26 09h46.10.824867 +0700,
ภูมิพัฒน์,จิตติมา,None,ภูมิพัฒน์,men.png,ภูมิพัฒน์,10,56,106,73,33,1,,,,k,0.7109911000588909,None,,,,,1,33,73,6,117.56380310002714,,,,,,,,,,,,,,,,,,,,,,,,,117.55230470001698,117.56380310002714,117.56380310002714,117.56380310002714,117.56380310002714,117.56380310002714,117.56380310002714,117.84106100001372,117.87421490007546,118.29415240010712,k,0.7109911000588909,None,,,test1,007,2025-09-26_09h46.01.019,Priming_gender,,2025.1.1,59.87357095283031,2025-09-26 09h46.10.824867 +0700,
นเรศ,พิมพ์ใจ,women.png,นเรศ,men.png,นเรศ,10,51,101,74,34,1,,,,k,1.5757060999749228,None,,,,,1,34,74,1,118.331608000095,,,,,,,,,,,,,,,,,,,,,,,,,118.32130030007102,118.331608000095,118.331608000095,118.331608000095,118.331608000095,118.331608000095,118.331608000095,118.60751830006484,118.64132520009298,119.92451080004685,k,1.5757060999749228,None,,,test1,007,2025-09-26_09h46.01.019,Priming_gender,,2025.1.1,59.87357095283031,2025-09-26 09h46.10.824867 +0700,
กฤษณะ,กาญจนา,men.png,กฤษณะ,men.png,กฤษณะ,10,50,100,75,35,1,,,,k,1.2227710000006482,None,,,,,1,35,75,0,119.96475410007406,,,,,,,,,,,,,,,,,,,,,,,,,119.95377100002952,119.96475410007406,119.96475410007406,119.96475410007406,119.96475410007406,119.96475410007406,119.96475410007406,120.24046270002145,120.2739943000488,121.19151120004244,k,1.2227710000006482,None,,,test1,007,2025-09-26_09h46.01.019,Priming_gender,,2025.1.1,59.87357095283031,2025-09-26 09h46.10.824867 +0700,
None,None,None,None,women.png,พิมพ์ใจ,11,61,131,76,36,1,,,,j,1.2851457999786362,None,,,,,1,36,76,31,121.23058510001283,,,,,,,,,,,,,,,,,,,,,,,,,121.21847490000073,121.23058510001283,121.23058510001283,121.23058510001283,121.23058510001283,121.23058510001283,121.23058510001283,121.50972540001385,121.54071150009986,122.52445160003845,j,1.2851457999786362,None,,,test1,007,2025-09-26_09h46.01.019,Priming_gender,,2025.1.1,59.87357095283031,2025-09-26 09h46.10.824867 +0700,
วรพล,วรรณา,None,วรพล,men.png,วรพล,10,57,107,77,37,1,,,,k,1.1359393999446183,None,,,,,1,37,77,7,122.56349160009995,,,,,,,,,,,,,,,,,,,,,,,,,122.55112350010313,122.56349160009995,122.56349160009995,122.56349160009995,122.56349160009995,122.56349160009995,122.56349160009995,122.82538510009181,122.87457159999758,123.70791330002248,k,1.1359393999446183,None,,,test1,007,2025-09-26_09h46.01.019,Priming_gender,,2025.1.1,59.87357095283031,2025-09-26 09h46.10.824867 +0700,
ปริญญา,อาภรณ์,None,ปริญญา,men.png,ปริญญา,10,55,105,78,38,1,,,,k,1.2320179999805987,None,,,,,1,38,78,5,123.74728670006152,,,,,,,,,,,,,,,,,,,,,,,,,123.73493860010058,123.74728670006152,123.74728670006152,123.74728670006152,123.74728670006152,123.74728670006152,123.74728670006152,124.00790990004316,124.05777360009961,124.99138350004796,k,1.2320179999805987,None,,,test1,007,2025-09-26_09h46.01.019,Priming_gender,,2025.1.1,59.87357095283031,2025-09-26 09h46.10.824867 +0700,
None,None,None,กาญจนา,men.png,กาญจนา,10,60,110,79,39,1,,,,k,1.5161867999704555,None,,,,,1,39,79,10,125.03118160006125,,,,,,,,,,,,,,,,,,,,,,,,,125.01846500008833,125.03118160006125,125.03118160006125,125.03118160006125,125.03118160006125,125.03118160006125,125.03118160006125,125.2910115000559,125.34083580004517,126.5576088000089,k,1.5161867999704555,None,,,test1,007,2025-09-26_09h46.01.019,Priming_gender,,2025.1.1,59.87357095283031,2025-09-26 09h46.10.824867 +0700,
ธนพล,วาสนา,None,ธนพล,men.png,ธนพล,10,52,102,80,0,2,,,,k,0.8271856000646949,None,,,,,2,0,80,2,126.59943420009222,,,,,,,,,,,,,,,,,,,,,,,,,126.58573819999583,126.59943420009222,126.59943420009222,126.59943420009222,126.59943420009222,126.59943420009222,126.59943420009222,126.85832580004353,126.90740300004836,127.44098720001057,k,0.8271856000646949,None,,,test1,007,2025-09-26_09h46.01.019,Priming_gender,,2025.1.1,59.87357095283031,2025-09-26 09h46.10.824867 +0700,
None,None,None,None,women.png,กาญจนา,11,60,130,81,1,2,,,,j,0.9243664999958128,None,,,,,2,1,81,30,127.47855540004093,,,,,,,,,,,,,,,,,,,,,,,,,127.4672437000554,127.47855540004093,127.47855540004093,127.47855540004093,127.47855540004093,127.47855540004093,127.47855540004093,127.74225030001253,127.79074450000189,128.40845580003224,j,0.9243664999958128,None,,,test1,007,2025-09-26_09h46.01.019,Priming_gender,,2025.1.1,59.87357095283031,2025-09-26 09h46.10.824867 +0700,
นเรศ,พิมพ์ใจ,women.png,นเรศ,men.png,นเรศ,10,51,101,82,2,2,,,,k,1.0750559999141842,None,,,,,2,2,82,1,128.44912030000705,,,,,,,,,,,,,,,,,,,,,,,,,128.43761940009426,128.44912030000705,128.44912030000705,128.44912030000705,128.44912030000705,128.44912030000705,128.44912030000705,128.7246078000171,128.75787830003537,129.52568500000052,k,1.0750559999141842,None,,,test1,007,2025-09-26_09h46.01.019,Priming_gender,,2025.1.1,59.87357095283031,2025-09-26 09h46.10.824867 +0700,
None,None,None,None,women.png,ปริญญา,11,55,125,83,3,2,,,,j,0.9326505999779329,None,,,,,2,3,83,25,129.56608690007124,,,,,,,,,,,,,,,,,,,,,,,,,129.55389740003739,129.56608690007124,129.56608690007124,129.56608690007124,129.56608690007124,129.56608690007124,129.56608690007124,129.84032710001338,129.87343000003602,130.50718620000407,j,0.9326505999779329,None,,,test1,007,2025-09-26_09h46.01.019,Priming_gender,,2025.1.1,59.87357095283031,2025-09-26 09h46.10.824867 +0700,
None,None,None,None,women.png,ศักดิ์สิทธิ์,11,58,128,84,4,2,,,,j,0.9754806000273675,None,,,,,2,4,84,28,130.54790830006823,,,,,,,,,,,,,,,,,,,,,,,,,130.53600300010294,130.54790830006823,130.54790830006823,130.54790830006823,130.54790830006823,130.54790830006823,130.54790830006823,130.80748130008578,130.85747090005316,131.54089649999514,j,0.9754806000273675,None,,,test1,007,2025-09-26_09h46.01.019,Priming_gender,,2025.1.1,59.87357095283031,2025-09-26 09h46.10.824867 +0700,
None,None,None,พิมพ์ใจ,men.png,พิมพ์ใจ,10,61,111,85,5,2,,,,k,1.3505319999530911,None,,,,,2,5,85,11,131.5804991000332,,,,,,,,,,,,,,,,,,,,,,,,,131.57029450009577,131.5804991000332,131.5804991000332,131.5804991000332,131.5804991000332,131.5804991000332,131.5804991000332,131.8425353000639,131.89047870005015,132.94131550006568,k,1.3505319999530911,None,,,test1,007,2025-09-26_09h46.01.019,Priming_gender,,2025.1.1,59.87357095283031,2025-09-26 09h46.10.824867 +0700,
None,None,None,วาสนา,men.png,วาสนา,10,62,112,86,6,2,,,,k,3.1144504999974743,None,,,,,2,6,86,12,132.9843691000715,,,,,,,,,,,,,,,,,,,,,,,,,132.97130150010344,132.9843691000715,132.9843691000715,132.9843691000715,132.9843691000715,132.9843691000715,132.9843691000715,133.25779689999763,133.29058530007023,136.10669470007997,k,3.1144504999974743,None,,,test1,007,2025-09-26_09h46.01.019,Priming_gender,,2025.1.1,59.87357095283031,2025-09-26 09h46.10.824867 +0700,
None,None,None,อาภรณ์,men.png,อาภรณ์,10,65,115,87,7,2,,,,k,0.8985347000416368,None,,,,,2,7,87,15,136.1450019000331,,,,,,,,,,,,,,,,,,,,,,,,,136.13308460009284,136.1450019000331,136.1450019000331,136.1450019000331,136.1450019000331,136.1450019000331,136.1450019000331,136.40784320002422,136.45688370009884,137.05751200008672,k,0.8985347000416368,None,,,test1,007,2025-09-26_09h46.01.019,Priming_gender,,2025.1.1,59.87357095283031,2025-09-26 09h46.10.824867 +0700,
None,None,None,จิตติมา,men.png,จิตติมา,10,66,116,88,8,2,,,,k,1.0983800999820232,None,,,,,2,8,88,16,137.0963981000241,,,,,,,,,,,,,,,,,,,,,,,,,137.08448390010744,137.0963981000241,137.0963981000241,137.0963981000241,137.0963981000241,137.0963981000241,137.0963981000241,137.3572752000764,137.4077346000122,138.20673770003486,k,1.0983800999820232,None,,,test1,007,2025-09-26_09h46.01.019,Priming_gender,,2025.1.1,59.87357095283031,2025-09-26 09h46.10.824867 +0700,
None,None,None,None,women.png,สุนิสา,11,68,138,89,9,2,,,,j,0.9390701999654993,None,,,,,2,9,89,38,138.2491700000828,,,,,,,,,,,,,,,,,,,,,,,,,138.23430630005896,138.2491700000828,138.2491700000828,138.2491700000828,138.2491700000828,138.2491700000828,138.2491700000828,138.50868020008784,138.5581001000246,139.19014920003247,j,0.9390701999654993,None,,,test1,007,2025-09-26_09h46.01.019,Priming_gender,,2025.1.1,59.87357095283031,2025-09-26 09h46.10.824867 +0700,
None,None,None,สุนิสา,men.png,สุนิสา,10,68,118,90,10,2,,,,j,1.479413199936971,None,,,,,2,10,90,18,139.2276241000509,,,,,,,,,,,,,,,,,,,,,,,,,139.21687730005942,139.2276241000509,139.2276241000509,139.2276241000509,139.2276241000509,139.2276241000509,139.2276241000509,139.48940350010525,139.53915610001422,140.727685400052,j,1.479413199936971,None,,,test1,007,2025-09-26_09h46.01.019,Priming_gender,,2025.1.1,59.87357095283031,2025-09-26 09h46.10.824867 +0700,
None,None,None,None,women.png,ภูมิพัฒน์,11,56,126,91,11,2,,,,j,2.1963516999967396,None,,,,,2,11,91,26,140.7666581000667,,,,,,,,,,,,,,,,,,,,,,,,,140.75583780009765,140.7666581000667,140.7666581000667,140.7666581000667,140.7666581000667,140.7666581000667,140.7666581000667,141.04003500007093,141.0734198000282,142.97288870008197,j,2.1963516999967396,None,,,test1,007,2025-09-26_09h46.01.019,Priming_gender,,2025.1.1,59.87357095283031,2025-09-26 09h46.10.824867 +0700,
พิสิฐ,ปัทมา,None,พิสิฐ,men.png,พิสิฐ,10,59,109,92,12,2,,,,k,1.118071599979885,None,,,,,2,12,92,9,143.01305450010113,,,,,,,,,,,,,,,,,,,,,,,,,143.0002797000343,143.01305450010113,143.01305450010113,143.01305450010113,143.01305450010113,143.01305450010113,143.01305450010113,143.27440320001915,143.3236524000531,144.1393648000667,k,1.118071599979885,None,,,test1,007,2025-09-26_09h46.01.019,Priming_gender,,2025.1.1,59.87357095283031,2025-09-26 09h46.10.824867 +0700,
None,None,None,None,women.png,พิสิฐ,11,59,129,93,13,2,,,,j,1.5042286000680178,None,,,,,2,13,93,29,144.17864190007094,,,,,,,,,,,,,,,,,,,,,,,,,144.1653939000098,144.17864190007094,144.17864190007094,144.17864190007094,144.17864190007094,144.17864190007094,144.17864190007094,144.45571470004506,144.48904750007205,145.68932050000876,j,1.5042286000680178,None,,,test1,007,2025-09-26_09h46.01.019,Priming_gender,,2025.1.1,59.87357095283031,2025-09-26 09h46.10.824867 +0700,
None,None,None,None,women.png,สุพัตรา,11,63,133,94,14,2,,,,j,2.2127037999453023,None,,,,,2,14,94,33,145.72710780007765,,,,,,,,,,,,,,,,,,,,,,,,,145.7152073000325,145.72710780007765,145.72710780007765,145.72710780007765,145.72710780007765,145.72710780007765,145.72710780007765,145.98917040007655,146.03894760005642,147.95641610003076,j,2.2127037999453023,None,,,test1,007,2025-09-26_09h46.01.019,Priming_gender,,2025.1.1,59.87357095283031,2025-09-26 09h46.10.824867 +0700,
None,None,None,None,women.png,ปัทมา,11,69,139,95,15,2,,,,j,0.8709466001018882,None,,,,,2,15,95,39,147.996438400005,,,,,,,,,,,,,,,,,,,,,,,,,147.98459900007583,147.996438400005,147.996438400005,147.996438400005,147.996438400005,147.996438400005,147.996438400005,148.2574472000124,148.30643770005554,148.8736497000791,j,0.8709466001018882,None,,,test1,007,2025-09-26_09h46.01.019,Priming_gender,,2025.1.1,59.87357095283031,2025-09-26 09h46.10.824867 +0700,
อรรถพล,สุพัตรา,None,อรรถพล,men.png,อรรถพล,10,53,103,96,16,2,,,,k,0.9802629000041634,None,,,,,2,16,96,3,148.9120913000079,,,,,,,,,,,,,,,,,,,,,,,,,148.90020730008837,148.9120913000079,148.9120913000079,148.9120913000079,148.9120913000079,148.9120913000079,148.9120913000079,149.1741627000738,149.22408920002636,149.90571280010045,k,0.9802629000041634,None,,,test1,007,2025-09-26_09h46.01.019,Priming_gender,,2025.1.1,59.87357095283031,2025-09-26 09h46.10.824867 +0700,
None,None,None,None,women.png,จิตติมา,11,66,136,97,17,2,,,,j,1.035789699992165,None,,,,,2,17,97,36,149.95881290000398,,,,,,,,,,,,,,,,,,,,,,,,,149.9352879000362,149.95881290000398,149.95881290000398,149.95881290000398,149.95881290000398,149.95881290000398,149.95881290000398,150.20653330010828,150.27213220007252,151.00740910007153,j,1.035789699992165,None,,,test1,007,2025-09-26_09h46.01.019,Priming_gender,,2025.1.1,59.87357095283031,2025-09-26 09h46.10.824867 +0700,
None,None,None,None,women.png,วรรณา,11,67,137,98,18,2,,,,j,0.8584355999482796,None,,,,,2,18,98,37,151.0484137000749,,,,,,,,,,,,,,,,,,,,,,,,,151.0351012001047,151.0484137000749,151.0484137000749,151.0484137000749,151.0484137000749,151.0484137000749,151.0484137000749,151.32225240010303,151.35572870005853,151.92260030005127,j,0.8584355999482796,None,,,test1,007,2025-09-26_09h46.01.019,Priming_gender,,2025.1.1,59.87357095283031,2025-09-26 09h46.10.824867 +0700,
None,None,None,None,women.png,วาสนา,11,62,132,99,19,2,,,,j,0.7957507000537589,None,,,,,2,19,99,32,151.95950790005736,,,,,,,,,,,,,,,,,,,,,,,,,151.95033240003977,151.95950790005736,151.95950790005736,151.95950790005736,151.95950790005736,151.95950790005736,151.95950790005736,152.2222352999961,152.2716218000278,152.772446100018,j,0.7957507000537589,None,,,test1,007,2025-09-26_09h46.01.019,Priming_gender,,2025.1.1,59.87357095283031,2025-09-26 09h46.10.824867 +0700,
None,None,None,None,women.png,ธนพล,11,52,122,100,20,2,,,,j,1.2218019999563694,None,,,,,2,20,100,22,152.81346520001534,,,,,,,,,,,,,,,,,,,,,,,,,152.8009474000428,152.81346520001534,152.81346520001534,152.81346520001534,152.81346520001534,152.81346520001534,152.81346520001534,153.07270400004927,153.122727900045,154.0392977000447,j,1.2218019999563694,None,,,test1,007,2025-09-26_09h46.01.019,Priming_gender,,2025.1.1,59.87357095283031,2025-09-26 09h46.10.824867 +0700,
วรพล,วรรณา,None,วรพล,men.png,วรพล,10,57,107,101,21,2,,,,k,1.459619199973531,None,,,,,2,21,101,7,154.07940150005743,,,,,,,,,,,,,,,,,,,,,,,,,154.06684010010213,154.07940150005743,154.07940150005743,154.07940150005743,154.07940150005743,154.07940150005743,154.07940150005743,154.34013090003282,154.39013930002693,155.55564520007465,k,1.459619199973531,None,,,test1,007,2025-09-26_09h46.01.019,Priming_gender,,2025.1.1,59.87357095283031,2025-09-26 09h46.10.824867 +0700,
None,None,None,None,women.png,อาภรณ์,11,65,135,102,22,2,,,,j,1.445868100039661,None,,,,,2,22,102,35,155.59695340006147,,,,,,,,,,,,,,,,,,,,,,,,,155.585237900028,155.59695340006147,155.59695340006147,155.59695340006147,155.59695340006147,155.59695340006147,155.59695340006147,155.8566408000188,155.90523999999277,157.055704300059,j,1.445868100039661,None,,,test1,007,2025-09-26_09h46.01.019,Priming_gender,,2025.1.1,59.87357095283031,2025-09-26 09h46.10.824867 +0700,
ภูมิพัฒน์,จิตติมา,None,ภูมิพัฒน์,men.png,ภูมิพัฒน์,10,56,106,103,23,2,,,,k,0.9883877999382094,None,,,,,2,23,103,6,157.0948980000103,,,,,,,,,,,,,,,,,,,,,,,,,157.08346810005605,157.0948980000103,157.0948980000103,157.0948980000103,157.0948980000103,157.0948980000103,157.0948980000103,157.3554604999954,157.4059251000872,158.08923220005818,k,0.9883877999382094,None,,,test1,007,2025-09-26_09h46.01.019,Priming_gender,,2025.1.1,59.87357095283031,2025-09-26 09h46.10.824867 +0700,
กฤษณะ,กาญจนา,men.png,กฤษณะ,men.png,กฤษณะ,10,50,100,104,24,2,,,,k,0.6742832999443635,None,,,,,2,24,104,0,158.1287332000211,,,,,,,,,,,,,,,,,,,,,,,,,158.1180116001051,158.1287332000211,158.1287332000211,158.1287332000211,158.1287332000211,158.1287332000211,158.1287332000211,158.38905700005125,158.43883100000676,158.80536660004873,k,0.6742832999443635,None,,,test1,007,2025-09-26_09h46.01.019,Priming_gender,,2025.1.1,59.87357095283031,2025-09-26 09h46.10.824867 +0700,
None,None,None,None,women.png,ศิริพร,11,64,134,105,25,2,,,,j,1.0798235000111163,None,,,,,2,25,105,34,158.84320470003877,,,,,,,,,,,,,,,,,,,,,,,,,158.83224880008493,158.84320470003877,158.84320470003877,158.84320470003877,158.84320470003877,158.84320470003877,158.84320470003877,159.1056297000032,159.15537880000193,159.93899370008148,j,1.0798235000111163,None,,,test1,007,2025-09-26_09h46.01.019,Priming_gender,,2025.1.1,59.87357095283031,2025-09-26 09h46.10.824867 +0700,
ปริญญา,อาภรณ์,None,ปริญญา,men.png,ปริญญา,10,55,105,106,26,2,,,,k,1.545823200023733,None,,,,,2,26,106,5,159.9769664000487,,,,,,,,,,,,,,,,,,,,,,,,,159.96510660008062,159.9769664000487,159.9769664000487,159.9769664000487,159.9769664000487,159.9769664000487,159.9769664000487,160.25562220008578,160.28839330002666,161.53826669999398,k,1.545823200023733,None,,,test1,007,2025-09-26_09h46.01.019,Priming_gender,,2025.1.1,59.87357095283031,2025-09-26 09h46.10.824867 +0700,
ชัยวัฒน์,ศิริพร,None,ชัยวัฒน์,men.png,ชัยวัฒน์,10,54,104,107,27,2,,,,k,0.9370514999609441,None,,,,,2,27,107,4,161.57876830000896,,,,,,,,,,,,,,,,,,,,,,,,,161.5664505000459,161.57876830000896,161.57876830000896,161.57876830000896,161.57876830000896,161.57876830000896,161.57876830000896,161.8397514000535,161.88887340005022,162.5217571000103,k,0.9370514999609441,None,,,test1,007,2025-09-26_09h46.01.019,Priming_gender,,2025.1.1,59.87357095283031,2025-09-26 09h46.10.824867 +0700,
None,None,None,None,women.png,นเรศ,11,51,121,108,28,2,,,,j,1.5239588000113145,None,,,,,2,28,108,21,162.55987040000036,,,,,,,,,,,,,,,,,,,,,,,,,162.54902950010728,162.55987040000036,162.55987040000036,162.55987040000036,162.55987040000036,162.55987040000036,162.55987040000036,162.8227634000359,162.87361380003858,164.0885561000323,j,1.5239588000113145,None,,,test1,007,2025-09-26_09h46.01.019,Priming_gender,,2025.1.1,59.87357095283031,2025-09-26 09h46.10.824867 +0700,
None,None,None,None,women.png,พิมพ์ใจ,11,61,131,109,29,2,,,,j,0.8184051000280306,None,,,,,2,29,109,31,164.12897449999582,,,,,,,,,,,,,,,,,,,,,,,,,164.1166755000595,164.12897449999582,164.12897449999582,164.12897449999582,164.12897449999582,164.12897449999582,164.12897449999582,164.38834440009668,164.4394438000163,164.95534089999273,j,0.8184051000280306,None,,,test1,007,2025-09-26_09h46.01.019,Priming_gender,,2025.1.1,59.87357095283031,2025-09-26 09h46.10.824867 +0700,
None,None,None,กาญจนา,men.png,กาญจนา,10,60,110,110,30,2,,,,k,1.6339775000233203,None,,,,,2,30,110,10,164.99317140004132,,,,,,,,,,,,,,,,,,,,,,,,,164.9819916000124,164.99317140004132,164.99317140004132,164.99317140004132,164.99317140004132,164.99317140004132,164.99317140004132,165.25579920003656,165.30560220009647,166.63808669999707,k,1.6339775000233203,None,,,test1,007,2025-09-26_09h46.01.019,Priming_gender,,2025.1.1,59.87357095283031,2025-09-26 09h46.10.824867 +0700,
None,None,None,None,women.png,อรรถพล,11,53,123,111,31,2,,,,j,1.774627699982375,None,,,,,2,31,111,23,166.67684390000068,,,,,,,,,,,,,,,,,,,,,,,,,166.6650554999942,166.67684390000068,166.67684390000068,166.67684390000068,166.67684390000068,166.67684390000068,166.67684390000068,166.93783370009623,166.9883492999943,168.45487160002813,j,1.774627699982375,None,,,test1,007,2025-09-26_09h46.01.019,Priming_gender,,2025.1.1,59.87357095283031,2025-09-26 09h46.10.824867 +0700,
None,None,None,None,women.png,กฤษณะ,11,50,120,112,32,2,,,,j,1.7003918999107555,None,,,,,2,32,112,20,168.4943365000654,,,,,,,,,,,,,,,,,,,,,,,,,168.4818028000882,168.4943365000654,168.4943365000654,168.4943365000654,168.4943365000654,168.4943365000654,168.4943365000654,168.75465910008643,168.8046521000797,170.2044541001087,j,1.7003918999107555,None,,,test1,007,2025-09-26_09h46.01.019,Priming_gender,,2025.1.1,59.87357095283031,2025-09-26 09h46.10.824867 +0700,
ศักดิ์สิทธิ์,สุนิสา,None,ศักดิ์สิทธิ์,men.png,ศักดิ์สิทธิ์,10,58,108,113,33,2,,,,k,0.961221499950625,None,,,,,2,33,113,8,170.24230650009122,,,,,,,,,,,,,,,,,,,,,,,,,170.23089210002217,170.24230650009122,170.24230650009122,170.24230650009122,170.24230650009122,170.24230650009122,170.24230650009122,170.50408600002993,170.55433980003,171.20497110008728,k,0.961221499950625,None,,,test1,007,2025-09-26_09h46.01.019,Priming_gender,,2025.1.1,59.87357095283031,2025-09-26 09h46.10.824867 +0700,
None,None,None,สุพัตรา,men.png,สุพัตรา,10,63,113,114,34,2,,,,k,1.191599200014025,None,,,,,2,34,114,13,171.24386550008785,,,,,,,,,,,,,,,,,,,,,,,,,171.23201330006123,171.24386550008785,171.24386550008785,171.24386550008785,171.24386550008785,171.24386550008785,171.24386550008785,171.50452529999893,171.55640670005232,172.43854980007745,k,1.191599200014025,None,,,test1,007,2025-09-26_09h46.01.019,Priming_gender,,2025.1.1,59.87357095283031,2025-09-26 09h46.10.824867 +0700,
None,None,None,ปัทมา,men.png,ปัทมา,10,69,119,115,35,2,,,,k,1.0274320000316948,None,,,,,2,35,115,19,172.47919750004075,,,,,,,,,,,,,,,,,,,,,,,,,172.46717030007858,172.47919750004075,172.47919750004075,172.47919750004075,172.47919750004075,172.47919750004075,172.47919750004075,172.75542570010293,172.7876468000468,173.52159600006416,k,1.0274320000316948,None,,,test1,007,2025-09-26_09h46.01.019,Priming_gender,,2025.1.1,59.87357095283031,2025-09-26 09h46.10.824867 +0700,
None,None,None,ศิริพร,men.png,ศิริพร,10,64,114,116,36,2,,,,k,0.7936348000075668,None,,,,,2,36,116,14,173.56102720007766,,,,,,,,,,,,,,,,,,,,,,,,,173.54801100003533,173.56102720007766,173.56102720007766,173.56102720007766,173.56102720007766,173.56102720007766,173.56102720007766,173.8209702000022,173.87242990010418,174.3707059000153,k,0.7936348000075668,None,,,test1,007,2025-09-26_09h46.01.019,Priming_gender,,2025.1.1,59.87357095283031,2025-09-26 09h46.10.824867 +0700,
None,None,None,วรรณา,men.png,วรรณา,10,67,117,117,37,2,,,,k,0.8914381000213325,None,,,,,2,37,117,17,174.4074818000663,,,,,,,,,,,,,,,,,,,,,,,,,174.39693800010718,174.4074818000663,174.4074818000663,174.4074818000663,174.4074818000663,174.4074818000663,174.4074818000663,174.67105080001056,174.72152970009483,175.30458620004356,k,0.8914381000213325,None,,,test1,007,2025-09-26_09h46.01.019,Priming_gender,,2025.1.1,59.87357095283031,2025-09-26 09h46.10.824867 +0700,
None,None,None,None,women.png,วรพล,11,57,127,118,38,2,,,,j,1.7174756999593228,None,,,,,2,38,118,27,175.34171510010492,,,,,,,,,,,,,,,,,,,,,,,,,175.33105750009418,175.34171510010492,175.34171510010492,175.34171510010492,175.34171510010492,175.34171510010492,175.34171510010492,175.60422450001352,175.6557851000689,177.07085810007993,j,1.7174756999593228,None,,,test1,007,2025-09-26_09h46.01.019,Priming_gender,,2025.1.1,59.87357095283031,2025-09-26 09h46.10.824867 +0700,
None,None,None,None,women.png,ชัยวัฒน์,11,54,124,119,39,2,,,,j,1.6287902001058683,None,,,,,2,39,119,24,177.1099621000467,,,,,,,,,,,,,,,,,,,,,,,,,177.09746439999435,177.1099621000467,177.1099621000467,177.1099621000467,177.1099621000467,177.1099621000467,177.1099621000467,177.37081830005627,177.42296050000004,178.75488810008392,j,1.6287902001058683,None,,,test1,007,2025-09-26_09h46.01.019,Priming_gender,,2025.1.1,59.87357095283031,2025-09-26 09h46.10.824867 +0700,
ภูมิพัฒน์,จิตติมา,None,ภูมิพัฒน์,men.png,ภูมิพัฒน์,10,56,106,120,0,3,,,,k,1.3059360999614,None,,,,,3,0,120,6,178.7936536000343,,,,,,,,,,,,,,,,,,,,,,,,,178.78145670006052,178.7936536000343,178.7936536000343,178.7936536000343,178.7936536000343,178.7936536000343,178.7936536000343,179.072353900061,179.10490620008204,180.10393280000426,k,1.3059360999614,None,,,test1,007,2025-09-26_09h46.01.019,Priming_gender,,2025.1.1,59.87357095283031,2025-09-26 09h46.10.824867 +0700,
None,None,None,None,women.png,อรรถพล,11,53,123,121,1,3,,,,j,1.0763294999487698,None,,,,,3,1,121,23,180.14286860008724,,,,,,,,,,,,,,,,,,,,,,,,,180.13068050006405,180.14286860008724,180.14286860008724,180.14286860008724,180.14286860008724,180.14286860008724,180.14286860008724,180.4033507000422,180.45467130001634,181.22080570005346,j,1.0763294999487698,None,,,test1,007,2025-09-26_09h46.01.019,Priming_gender,,2025.1.1,59.87357095283031,2025-09-26 09h46.10.824867 +0700,
None,None,None,พิมพ์ใจ,men.png,พิมพ์ใจ,10,61,111,122,2,3,,,,k,1.3195121999597177,None,,,,,3,2,122,11,181.26016890001483,,,,,,,,,,,,,,,,,,,,,,,,,181.2479776000837,181.26016890001483,181.26016890001483,181.26016890001483,181.26016890001483,181.26016890001483,181.26016890001483,181.52070290001575,181.57086640002672,182.5869455001084,k,1.3195121999597177,None,,,test1,007,2025-09-26_09h46.01.019,Priming_gender,,2025.1.1,59.87357095283031,2025-09-26 09h46.10.824867 +0700,
นเรศ,พิมพ์ใจ,women.png,นเรศ,men.png,นเรศ,10,51,101,123,3,3,,,,k,1.1198812000220641,None,,,,,3,3,123,1,182.6267550000921,,,,,,,,,,,,,,,,,,,,,,,,,182.61462990008295,182.6267550000921,182.6267550000921,182.6267550000921,182.6267550000921,182.6267550000921,182.6267550000921,182.88709329999983,182.93715950008482,183.75354860001244,k,1.1198812000220641,None,,,test1,007,2025-09-26_09h46.01.019,Priming_gender,,2025.1.1,59.87357095283031,2025-09-26 09h46.10.824867 +0700,
ปริญญา,อาภรณ์,None,ปริญญา,men.png,ปริญญา,10,55,105,124,4,3,,,,k,2.067872800049372,None,,,,,3,4,124,5,183.79150240006857,,,,,,,,,,,,,,,,,,,,,,,,,183.78071040008217,183.79150240006857,183.79150240006857,183.79150240006857,183.79150240006857,183.79150240006857,183.79150240006857,184.07036550005432,184.1038173000561,185.8706255001016,k,2.067872800049372,None,,,test1,007,2025-09-26_09h46.01.019,Priming_gender,,2025.1.1,59.87357095283031,2025-09-26 09h46.10.824867 +0700,
None,None,None,None,women.png,วาสนา,11,62,132,125,5,3,,,,j,1.0703138000098988,None,,,,,3,5,125,32,185.90938870003447,,,,,,,,,,,,,,,,,,,,,,,,,185.89757190004457,185.90938870003447,185.90938870003447,185.90938870003447,185.90938870003447,185.90938870003447,185.90938870003447,186.18637080001645,186.22038060007617,186.98740149999503,j,1.0703138000098988,None,,,test1,007,2025-09-26_09h46.01.019,Priming_gender,,2025.1.1,59.87357095283031,2025-09-26 09h46.10.824867 +0700,
None,None,None,None,women.png,สุนิสา,11,68,138,126,6,3,,,,k,1.3574112999485806,None,,,,,3,6,126,38,187.02979640010744,,,,,,,,,,,,,,,,,,,,,,,,,187.01642920006998,187.02979640010744,187.02979640010744,187.02979640010744,187.02979640010744,187.02979640010744,187.02979640010744,187.28719420009293,187.33721750008408,188.40358090004884,k,1.3574112999485806,None,,,test1,007,2025-09-26_09h46.01.019,Priming_gender,,2025.1.1,59.87357095283031,2025-09-26 09h46.10.824867 +0700,
None,None,None,None,women.png,จิตติมา,11,66,136,127,7,3,,,,j,1.6258524999720976,None,,,,,3,7,127,36,188.441476100008,,,,,,,,,,,,,,,,,,,,,,,,,188.43034419999458,188.441476100008,188.441476100008,188.441476100008,188.441476100008,188.441476100008,188.441476100008,188.70434250007384,188.75531210005283,190.07048450002912,j,1.6258524999720976,None,,,test1,007,2025-09-26_09h46.01.019,Priming_gender,,2025.1.1,59.87357095283031,2025-09-26 09h46.10.824867 +0700,
None,None,None,None,women.png,กาญจนา,11,60,130,128,8,3,,,,j,0.820649900007993,None,,,,,3,8,128,30,190.1105742000509,,,,,,,,,,,,,,,,,,,,,,,,,190.09861089999322,190.1105742000509,190.1105742000509,190.1105742000509,190.1105742000509,190.1105742000509,190.1105742000509,190.38779850001447,190.4212564000627,190.93788930005394,j,0.820649900007993,None,,,test1,007,2025-09-26_09h46.01.019,Priming_gender,,2025.1.1,59.87357095283031,2025-09-26 09h46.10.824867 +0700,
None,None,None,วาสนา,men.png,วาสนา,10,62,112,129,9,3,,,,k,1.3601821000920609,None,,,,,3,9,129,12,190.9784481000388,,,,,,,,,,,,,,,,,,,,,,,,,190.9654443000909,190.9784481000388,190.9784481000388,190.9784481000388,190.9784481000388,190.9784481000388,190.9784481000388,191.25326420005877,191.2869130000472,192.3536688000895,k,1.3601821000920609,None,,,test1,007,2025-09-26_09h46.01.019,Priming_gender,,2025.1.1,59.87357095283031,2025-09-26 09h46.10.824867 +0700,
กฤษณะ,กาญจนา,men.png,กฤษณะ,men.png,กฤษณะ,10,50,100,130,10,3,,,,k,0.8911314000142738,None,,,,,3,10,130,0,192.39210630010348,,,,,,,,,,,,,,,,,,,,,,,,,192.38025460008066,192.39210630010348,192.39210630010348,192.39210630010348,192.39210630010348,192.39210630010348,192.39210630010348,192.65414930006955,192.7036326000234,193.28833100001793,k,0.8911314000142738,None,,,test1,007,2025-09-26_09h46.01.019,Priming_gender,,2025.1.1,59.87357095283031,2025-09-26 09h46.10.824867 +0700,
None,None,None,None,women.png,สุพัตรา,11,63,133,131,11,3,,,,j,1.1237024998990819,None,,,,,3,11,131,33,193.3277120999992,,,,,,,,,,,,,,,,,,,,,,,,,193.31587290007155,193.3277120999992,193.3277120999992,193.3277120999992,193.3277120999992,193.3277120999992,193.3277120999992,193.60448530002031,193.6367335000541,194.45376730000135,j,1.1237024998990819,None,,,test1,007,2025-09-26_09h46.01.019,Priming_gender,,2025.1.1,59.87357095283031,2025-09-26 09h46.10.824867 +0700,
None,None,None,None,women.png,วรพล,11,57,127,132,12,3,,,,j,1.3677320000715554,None,,,,,3,12,132,27,194.49164460005704,,,,,,,,,,,,,,,,,,,,,,,,,194.47995710000396,194.49164460005704,194.49164460005704,194.49164460005704,194.49164460005704,194.49164460005704,194.49164460005704,194.75516650010832,194.8043227000162,195.86975800001528,j,1.3677320000715554,None,,,test1,007,2025-09-26_09h46.01.019,Priming_gender,,2025.1.1,59.87357095283031,2025-09-26 09h46.10.824867 +0700,
None,None,None,None,women.png,ปริญญา,11,55,125,133,13,3,,,,j,0.8135121000232175,None,,,,,3,13,133,25,195.9091291000368,,,,,,,,,,,,,,,,,,,,,,,,,195.89690150006209,195.9091291000368,195.9091291000368,195.9091291000368,195.9091291000368,195.9091291000368,195.9091291000368,196.1711969000753,196.21991090010852,196.73674330010545,j,0.8135121000232175,None,,,test1,007,2025-09-26_09h46.01.019,Priming_gender,,2025.1.1,59.87357095283031,2025-09-26 09h46.10.824867 +0700,
None,None,None,None,women.png,นเรศ,11,51,121,134,14,3,,,,j,0.8454351999098435,None,,,,,3,14,134,21,196.77381750009954,,,,,,,,,,,,,,,,,,,,,,,,,196.76288080005907,196.77381750009954,196.77381750009954,196.77381750009954,196.77381750009954,196.77381750009954,196.77381750009954,197.0367156000575,197.0876172001008,197.63593800005037,j,0.8454351999098435,None,,,test1,007,2025-09-26_09h46.01.019,Priming_gender,,2025.1.1,59.87357095283031,2025-09-26 09h46.10.824867 +0700,
None,None,None,สุนิสา,men.png,สุนิสา,10,68,118,135,15,3,,,,k,1.0811949000926688,None,,,,,3,15,135,18,197.6735182000557,,,,,,,,,,,,,,,,,,,,,,,,,197.66335600009188,197.6735182000557,197.6735182000557,197.6735182000557,197.6735182000557,197.6735182000557,197.6735182000557,197.93588440003805,197.98885610001162,198.77015650004614,k,1.0811949000926688,None,,,test1,007,2025-09-26_09h46.01.019,Priming_gender,,2025.1.1,59.87357095283031,2025-09-26 09h46.10.824867 +0700,
None,None,None,None,women.png,อาภรณ์,11,65,135,136,16,3,,,,j,1.0639317000750452,None,,,,,3,16,136,35,198.8112121000886,,,,,,,,,,,,,,,,,,,,,,,,,198.7989821000956,198.8112121000886,198.8112121000886,198.8112121000886,198.8112121000886,198.8112121000886,198.8112121000886,199.08646490005776,199.1194555000402,199.88609740009997,j,1.0639317000750452,None,,,test1,007,2025-09-26_09h46.01.019,Priming_gender,,2025.1.1,59.87357095283031,2025-09-26 09h46.10.824867 +0700,
None,None,None,None,women.png,ศิริพร,11,64,134,137,17,3,,,,j,0.8153179999208078,None,,,,,3,17,137,34,199.9233557000989,,,,,,,,,,,,,,,,,,,,,,,,,199.91241800005082,199.9233557000989,199.9233557000989,199.9233557000989,199.9233557000989,199.9233557000989,199.9233557000989,200.18602850008756,200.2353926000651,200.75316200009547,j,0.8153179999208078,None,,,test1,007,2025-09-26_09h46.01.019,Priming_gender,,2025.1.1,59.87357095283031,2025-09-26 09h46.10.824867 +0700,
None,None,None,None,women.png,ภูมิพัฒน์,11,56,126,138,18,3,,,,j,1.0043559999903664,None,,,,,3,18,138,26,200.7906689000083,,,,,,,,,,,,,,,,,,,,,,,,,200.77909359999467,200.7906689000083,200.7906689000083,200.7906689000083,200.7906689000083,200.7906689000083,200.7906689000083,201.0693213000195,201.10258170007728,201.80309260007925,j,1.0043559999903664,None,,,test1,007,2025-09-26_09h46.01.019,Priming_gender,,2025.1.1,59.87357095283031,2025-09-26 09h46.10.824867 +0700,
None,None,None,None,women.png,ศักดิ์สิทธิ์,11,58,128,139,19,3,,,,j,1.1377178999828175,None,,,,,3,19,139,28,201.84210170002189,,,,,,,,,,,,,,,,,,,,,,,,,201.83081080007832,201.84210170002189,201.84210170002189,201.84210170002189,201.84210170002189,201.84210170002189,201.84210170002189,202.10399050009437,202.15203470003325,202.9870707000373,j,1.1377178999828175,None,,,test1,007,2025-09-26_09h46.01.019,Priming_gender,,2025.1.1,59.87357095283031,2025-09-26 09h46.10.824867 +0700,
None,None,None,วรรณา,men.png,วรรณา,10,67,117,140,20,3,,,,k,0.7858575000427663,None,,,,,3,20,140,17,203.02535710006487,,,,,,,,,,,,,,,,,,,,,,,,,203.0140605000779,203.02535710006487,203.02535710006487,203.02535710006487,203.02535710006487,203.02535710006487,203.02535710006487,203.28733200009447,203.33579510007985,203.8192533000838,k,0.7858575000427663,None,,,test1,007,2025-09-26_09h46.01.019,Priming_gender,,2025.1.1,59.87357095283031,2025-09-26 09h46.10.824867 +0700,
None,None,None,None,women.png,ชัยวัฒน์,11,54,124,141,21,3,,,,j,1.4100842999760062,None,,,,,3,21,141,24,203.85739750007633,,,,,,,,,,,,,,,,,,,,,,,,,203.8462043000618,203.85739750007633,203.85739750007633,203.85739750007633,203.85739750007633,203.85739750007633,203.85739750007633,204.1196208000183,204.16907050006557,205.26947800000198,j,1.4100842999760062,None,,,test1,007,2025-09-26_09h46.01.019,Priming_gender,,2025.1.1,59.87357095283031,2025-09-26 09h46.10.824867 +0700,
None,None,None,สุพัตรา,men.png,สุพัตรา,10,63,113,142,22,3,,,,k,1.317716300021857,None,,,,,3,22,142,13,205.30926070001442,,,,,,,,,,,,,,,,,,,,,,,,,205.29747640003916,205.30926070001442,205.30926070001442,205.30926070001442,205.30926070001442,205.30926070001442,205.30926070001442,205.5703216000693,205.62058730004355,206.6368313001003,k,1.317716300021857,None,,,test1,007,2025-09-26_09h46.01.019,Priming_gender,,2025.1.1,59.87357095283031,2025-09-26 09h46.10.824867 +0700,
None,None,None,อาภรณ์,men.png,อาภรณ์,10,65,115,143,23,3,,,,k,0.9257198999403045,None,,,,,3,23,143,15,206.67750600003637,,,,,,,,,,,,,,,,,,,,,,,,,206.66486160003114,206.67750600003637,206.67750600003637,206.67750600003637,206.67750600003637,206.67750600003637,206.67750600003637,206.95206170005258,206.98525350005366,207.61912520008627,k,0.9257198999403045,None,,,test1,007,2025-09-26_09h46.01.019,Priming_gender,,2025.1.1,59.87357095283031,2025-09-26 09h46.10.824867 +0700,
None,None,None,None,women.png,ธนพล,11,52,122,144,24,3,,,,k,0.9383578000124544,None,,,,,3,24,144,22,207.65710290009156,,,,,,,,,,,,,,,,,,,,,,,,,207.64575290004723,207.65710290009156,207.65710290009156,207.65710290009156,207.65710290009156,207.65710290009156,207.65710290009156,207.91938670002855,207.96870030008722,208.6024836000288,k,0.9383578000124544,None,,,test1,007,2025-09-26_09h46.01.019,Priming_gender,,2025.1.1,59.87357095283031,2025-09-26 09h46.10.824867 +0700,
ชัยวัฒน์,ศิริพร,None,ชัยวัฒน์,men.png,ชัยวัฒน์,10,54,104,145,25,3,,,,k,1.9061684999614954,None,,,,,3,25,145,4,208.641608200036,,,,,,,,,,,,,,,,,,,,,,,,,208.62992700003088,208.641608200036,208.641608200036,208.641608200036,208.641608200036,208.641608200036,208.641608200036,208.90308280009776,208.95199950004462,210.55191280005965,k,1.9061684999614954,None,,,test1,007,2025-09-26_09h46.01.019,Priming_gender,,2025.1.1,59.87357095283031,2025-09-26 09h46.10.824867 +0700,
None,None,None,None,women.png,ปัทมา,11,69,139,146,26,3,,,,j,0.8835539000574499,None,,,,,3,26,146,39,210.59102170006372,,,,,,,,,,,,,,,,,,,,,,,,,210.57853210007306,210.59102170006372,210.59102170006372,210.59102170006372,210.59102170006372,210.59102170006372,210.59102170006372,210.853689200012,210.9020491000265,211.48559350008145,j,0.8835539000574499,None,,,test1,007,2025-09-26_09h46.01.019,Priming_gender,,2025.1.1,59.87357095283031,2025-09-26 09h46.10.824867 +0700,
None,None,None,ปัทมา,men.png,ปัทมา,10,69,119,147,27,3,,,,j,0.910293799941428,None,,,,,3,27,147,19,211.52514870010782,,,,,,,,,,,,,,,,,,,,,,,,,211.51335300004575,211.52514870010782,211.52514870010782,211.52514870010782,211.52514870010782,211.52514870010782,211.52514870010782,211.78643400000874,211.83503400010522,212.45195730007254,j,0.910293799941428,None,,,test1,007,2025-09-26_09h46.01.019,Priming_gender,,2025.1.1,59.87357095283031,2025-09-26 09h46.10.824867 +0700,
พิสิฐ,ปัทมา,None,พิสิฐ,men.png,พิสิฐ,10,59,109,148,28,3,,,,k,1.1312031999696046,None,,,,,3,28,148,9,212.48793440009467,,,,,,,,,,,,,,,,,,,,,,,,,212.47808860009536,212.48793440009467,212.48793440009467,212.48793440009467,212.48793440009467,212.48793440009467,212.48793440009467,212.76937920006458,212.80190860002767,213.6354280000087,k,1.1312031999696046,None,,,test1,007,2025-09-26_09h46.01.019,Priming_gender,,2025.1.1,59.87357095283031,2025-09-26 09h46.10.824867 +0700,
ธนพล,วาสนา,None,ธนพล,men.png,ธนพล,10,52,102,149,29,3,,,,k,0.9852332000155002,None,,,,,3,29,149,2,213.67409210000187,,,,,,,,,,,,,,,,,,,,,,,,,213.66230510000605,213.67409210000187,213.67409210000187,213.67409210000187,213.67409210000187,213.67409210000187,213.67409210000187,213.95157180004753,213.9846330001019,214.6682446000632,k,0.9852332000155002,None,,,test1,007,2025-09-26_09h46.01.019,Priming_gender,,2025.1.1,59.87357095283031,2025-09-26 09h46.10.824867 +0700,
วรพล,วรรณา,None,วรพล,men.png,วรพล,10,57,107,150,30,3,,,,k,0.8467807000270113,None,,,,,3,30,150,7,214.7070147000486,,,,,,,,,,,,,,,,,,,,,,,,,214.69496470002923,214.7070147000486,214.7070147000486,214.7070147000486,214.7070147000486,214.7070147000486,214.7070147000486,214.96943160006776,215.0183457999956,215.56826140009798,k,0.8467807000270113,None,,,test1,007,2025-09-26_09h46.01.019,Priming_gender,,2025.1.1,59.87357095283031,2025-09-26 09h46.10.824867 +0700,
None,None,None,ศิริพร,men.png,ศิริพร,10,64,114,151,31,3,,,,k,1.3222654999699444,None,,,,,3,31,151,14,215.6093670000555,,,,,,,,,,,,,,,,,,,,,,,,,215.59667890006676,215.6093670000555,215.6093670000555,215.6093670000555,215.6093670000555,215.6093670000555,215.6093670000555,215.87025520007592,215.91840950003825,216.9355102000991,k,1.3222654999699444,None,,,test1,007,2025-09-26_09h46.01.019,Priming_gender,,2025.1.1,59.87357095283031,2025-09-26 09h46.10.824867 +0700,
None,None,None,None,women.png,กฤษณะ,11,50,120,152,32,3,,,,j,1.317998299957253,None,,,,,3,32,152,20,216.9731797000859,,,,,,,,,,,,,,,,,,,,,,,,,216.96161620004568,216.9731797000859,216.9731797000859,216.9731797000859,216.9731797000859,216.9731797000859,216.9731797000859,217.25181070005056,217.284980299999,218.30162220005877,j,1.317998299957253,None,,,test1,007,2025-09-26_09h46.01.019,Priming_gender,,2025.1.1,59.87357095283031,2025-09-26 09h46.10.824867 +0700,
None,None,None,None,women.png,พิมพ์ใจ,11,61,131,153,33,3,,,,j,1.8228607999626547,None,,,,,3,33,153,31,218.34095050010365,,,,,,,,,,,,,,,,,,,,,,,,,218.32859190006275,218.34095050010365,218.34095050010365,218.34095050010365,218.34095050010365,218.34095050010365,218.34095050010365,218.60137790010776,218.65135200007353,220.16835900000297,j,1.8228607999626547,None,,,test1,007,2025-09-26_09h46.01.019,Priming_gender,,2025.1.1,59.87357095283031,2025-09-26 09h46.10.824867 +0700,
ศักดิ์สิทธิ์,สุนิสา,None,ศักดิ์สิทธิ์,men.png,ศักดิ์สิทธิ์,10,58,108,154,34,3,,,,k,1.364376499899663,None,,,,,3,34,154,8,220.2062150000129,,,,,,,,,,,,,,,,,,,,,,,,,220.1950450000586,220.2062150000129,220.2062150000129,220.2062150000129,220.2062150000129,220.2062150000129,220.2062150000129,220.48438939999323,220.51782740000635,221.5848663999932,k,1.364376499899663,None,,,test1,007,2025-09-26_09h46.01.019,Priming_gender,,2025.1.1,59.87357095283031,2025-09-26 09h46.10.824867 +0700,
อรรถพล,สุพัตรา,None,อรรถพล,men.png,อรรถพล,10,53,103,155,35,3,,,,k,0.6842069000704214,None,,,,,3,35,155,3,221.62330000009388,,,,,,,,,,,,,,,,,,,,,,,,,221.61070140008815,221.62330000009388,221.62330000009388,221.62330000009388,221.62330000009388,221.62330000009388,221.62330000009388,221.88544570002705,221.93430439999793,222.31958750006743,k,0.6842069000704214,None,,,test1,007,2025-09-26_09h46.01.019,Priming_gender,,2025.1.1,59.87357095283031,2025-09-26 09h46.10.824867 +0700,
None,None,None,กาญจนา,men.png,กาญจนา,10,60,110,156,36,3,,,,k,1.436513099935837,None,,,,,3,36,156,10,222.3583975000074,,,,,,,,,,,,,,,,,,,,,,,,,222.34656580002047,222.3583975000074,222.3583975000074,222.3583975000074,222.3583975000074,222.3583975000074,222.3583975000074,222.6346673000371,222.66832150006667,223.80147970002145,k,1.436513099935837,None,,,test1,007,2025-09-26_09h46.01.019,Priming_gender,,2025.1.1,59.87357095283031,2025-09-26 09h46.10.824867 +0700,
None,None,None,จิตติมา,men.png,จิตติมา,10,66,116,157,37,3,,,,k,2.2275726000079885,None,,,,,3,37,157,16,223.8398443000624,,,,,,,,,,,,,,,,,,,,,,,,,223.8281760000391,223.8398443000624,223.8398443000624,223.8398443000624,223.8398443000624,223.8398443000624,223.8398443000624,224.1017982000485,224.15121939999517,226.08397780009545,k,2.2275726000079885,None,,,test1,007,2025-09-26_09h46.01.019,Priming_gender,,2025.1.1,59.87357095283031,2025-09-26 09h46.10.824867 +0700,
None,None,None,None,women.png,วรรณา,11,67,137,158,38,3,,,,j,0.9033664000453427,None,,,,,3,38,158,37,226.1241219000658,,,,,,,,,,,,,,,,,,,,,,,,,226.11235920002218,226.1241219000658,226.1241219000658,226.1241219000658,226.1241219000658,226.1241219000658,226.1241219000658,226.38473430008162,226.43477000005078,227.03491040004883,j,0.9033664000453427,None,,,test1,007,2025-09-26_09h46.01.019,Priming_gender,,2025.1.1,59.87357095283031,2025-09-26 09h46.10.824867 +0700,
None,None,None,None,women.png,พิสิฐ,11,59,129,159,39,3,,,,j,1.0734113999642432,None,,,,,3,39,159,29,227.0738457000116,,,,,,,,,,,,,,,,,,,,,,,,,227.06103520002216,227.0738457000116,227.0738457000116,227.0738457000116,227.0738457000116,227.0738457000116,227.0738457000116,227.33537240000442,227.38491760008037,228.15162640006747,j,1.0734113999642432,None,,,test1,007,2025-09-26_09h46.01.019,Priming_gender,,2025.1.1,59.87357095283031,2025-09-26 09h46.10.824867 +0700,
นเรศ,พิมพ์ใจ,women.png,นเรศ,men.png,นเรศ,10,51,101,160,0,4,,,,k,1.1723052999004722,None,,,,,4,0,160,1,228.1916132000042,,,,,,,,,,,,,,,,,,,,,,,,,228.17877070000395,228.1916132000042,228.1916132000042,228.1916132000042,228.1916132000042,228.1916132000042,228.1916132000042,228.45125770010054,228.50070700002834,229.36713360005524,k,1.1723052999004722,None,,,test1,007,2025-09-26_09h46.01.019,Priming_gender,,2025.1.1,59.87357095283031,2025-09-26 09h46.10.824867 +0700,
None,None,None,None,women.png,จิตติมา,11,66,136,161,1,4,,,,j,0.9016981999156997,None,,,,,4,1,161,36,229.40521650004666,,,,,,,,,,,,,,,,,,,,,,,,,229.39367870008573,229.40521650004666,229.40521650004666,229.40521650004666,229.40521650004666,229.40521650004666,229.40521650004666,229.6673261000542,229.71765960007906,230.31768209999427,j,0.9016981999156997,None,,,test1,007,2025-09-26_09h46.01.019,Priming_gender,,2025.1.1,59.87357095283031,2025-09-26 09h46.10.824867 +0700,
None,None,None,None,women.png,กฤษณะ,11,50,120,162,2,4,,,,j,0.9594558000098914,None,,,,,4,2,162,20,230.3559490001062,,,,,,,,,,,,,,,,,,,,,,,,,230.345080900006,230.3559490001062,230.3559490001062,230.3559490001062,230.3559490001062,230.3559490001062,230.3559490001062,230.61778520001099,230.66818590008188,231.31759940006305,j,0.9594558000098914,None,,,test1,007,2025-09-26_09h46.01.019,Priming_gender,,2025.1.1,59.87357095283031,2025-09-26 09h46.10.824867 +0700,
None,None,None,None,women.png,วาสนา,11,62,132,163,3,4,,,,j,0.8876444000052288,None,,,,,4,3,163,32,231.35537290002685,,,,,,,,,,,,,,,,,,,,,,,,,231.34448770002928,231.35537290002685,231.35537290002685,231.35537290002685,231.35537290002685,231.35537290002685,231.35537290002685,231.61731800006237,231.66783230006695,232.2505894000642,j,0.8876444000052288,None,,,test1,007,2025-09-26_09h46.01.019,Priming_gender,,2025.1.1,59.87357095283031,2025-09-26 09h46.10.824867 +0700,
None,None,None,None,women.png,วรรณา,11,67,137,164,4,4,,,,j,1.0421555999200791,None,,,,,4,4,164,37,232.28908030001912,,,,,,,,,,,,,,,,,,,,,,,,,232.27773660002276,232.28908030001912,232.28908030001912,232.28908030001912,232.28908030001912,232.28908030001912,232.28908030001912,232.55233150010463,232.60069380002096,233.33424610004295,j,1.0421555999200791,None,,,test1,007,2025-09-26_09h46.01.019,Priming_gender,,2025.1.1,59.87357095283031,2025-09-26 09h46.10.824867 +0700,
None,None,None,None,women.png,วรพล,11,57,127,165,5,4,,,,j,0.7733663000399247,None,,,,,4,5,165,27,233.3737998000579,,,,,,,,,,,,,,,,,,,,,,,,,233.3605755000608,233.3737998000579,233.3737998000579,233.3737998000579,233.3737998000579,233.3737998000579,233.3737998000579,233.6334309000522,233.6858631001087,234.15079330001026,j,0.7733663000399247,None,,,test1,007,2025-09-26_09h46.01.019,Priming_gender,,2025.1.1,59.87357095283031,2025-09-26 09h46.10.824867 +0700,
None,None,None,สุนิสา,men.png,สุนิสา,10,68,118,166,6,4,,,,k,1.3206902999663725,None,,,,,4,6,166,18,234.1865293000592,,,,,,,,,,,,,,,,,,,,,,,,,234.1766718000872,234.1865293000592,234.1865293000592,234.1865293000592,234.1865293000592,234.1865293000592,234.1865293000592,234.4669568000827,234.50018299999647,235.517454200075,k,1.3206902999663725,None,,,test1,007,2025-09-26_09h46.01.019,Priming_gender,,2025.1.1,59.87357095283031,2025-09-26 09h46.10.824867 +0700,
None,None,None,None,women.png,ภูมิพัฒน์,11,56,126,167,7,4,,,,j,1.3445321000181139,None,,,,,4,7,167,26,235.55449800007045,,,,,,,,,,,,,,,,,,,,,,,,,235.54361990001053,235.55449800007045,235.55449800007045,235.55449800007045,235.55449800007045,235.55449800007045,235.55449800007045,235.83374930010177,235.86666530009825,236.901161900023,j,1.3445321000181139,None,,,test1,007,2025-09-26_09h46.01.019,Priming_gender,,2025.1.1,59.87357095283031,2025-09-26 09h46.10.824867 +0700,
None,None,None,None,women.png,ชัยวัฒน์,11,54,124,168,8,4,,,,j,1.8306650000158697,None,,,,,4,8,168,24,236.9399261000799,,,,,,,,,,,,,,,,,,,,,,,,,236.9283225000836,236.9399261000799,236.9399261000799,236.9399261000799,236.9399261000799,236.9399261000799,236.9399261000799,237.21655880007893,237.2503097000299,238.78361959999893,j,1.8306650000158697,None,,,test1,007,2025-09-26_09h46.01.019,Priming_gender,,2025.1.1,59.87357095283031,2025-09-26 09h46.10.824867 +0700,
None,None,None,จิตติมา,men.png,จิตติมา,10,66,116,169,9,4,,,,k,0.7791651000734419,None,,,,,4,9,169,16,238.82353140006308,,,,,,,,,,,,,,,,,,,,,,,,,238.8119183999952,238.82353140006308,238.82353140006308,238.82353140006308,238.82353140006308,238.82353140006308,238.82353140006308,239.0838501000544,239.13296320009977,239.61697060009465,k,0.7791651000734419,None,,,test1,007,2025-09-26_09h46.01.019,Priming_gender,,2025.1.1,59.87357095283031,2025-09-26 09h46.10.824867 +0700,
อรรถพล,สุพัตรา,None,อรรถพล,men.png,อรรถพล,10,53,103,170,10,4,,,,k,1.482796399970539,None,,,,,4,10,170,3,239.65614700003061,,,,,,,,,,,,,,,,,,,,,,,,,239.64365760004148,239.65614700003061,239.65614700003061,239.65614700003061,239.65614700003061,239.65614700003061,239.65614700003061,239.91807210003026,239.96792770002503,241.15026710007805,k,1.482796399970539,None,,,test1,007,2025-09-26_09h46.01.019,Priming_gender,,2025.1.1,59.87357095283031,2025-09-26 09h46.10.824867 +0700,
ศักดิ์สิทธิ์,สุนิสา,None,ศักดิ์สิทธิ์,men.png,ศักดิ์สิทธิ์,10,58,108,171,11,4,,,,k,1.1988800999242812,None,,,,,4,11,171,8,241.1877523000585,,,,,,,,,,,,,,,,,,,,,,,,,241.17642540007364,241.1877523000585,241.1877523000585,241.1877523000585,241.1877523000585,241.1877523000585,241.1877523000585,241.45157720008865,241.50184100004844,242.39993479999248,k,1.1988800999242812,None,,,test1,007,2025-09-26_09h46.01.019,Priming_gender,,2025.1.1,59.87357095283031,2025-09-26 09h46.10.824867 +0700,
None,None,None,None,women.png,สุพัตรา,11,63,133,172,12,4,,,,j,1.3571783000370488,None,,,,,4,12,172,33,242.43759920005687,,,,,,,,,,,,,,,,,,,,,,,,,242.42634590005036,242.43759920005687,242.43759920005687,242.43759920005687,242.43759920005687,242.43759920005687,242.43759920005687,242.70051280001644,242.75031320005655,243.80034320009872,j,1.3571783000370488,None,,,test1,007,2025-09-26_09h46.01.019,Priming_gender,,2025.1.1,59.87357095283031,2025-09-26 09h46.10.824867 +0700,
None,None,None,None,women.png,กาญจนา,11,60,130,173,13,4,,,,j,0.6919611999765038,None,,,,,4,13,173,30,243.8389962000074,,,,,,,,,,,,,,,,,,,,,,,,,243.82734270009678,243.8389962000074,243.8389962000074,243.8389962000074,243.8389962000074,243.8389962000074,243.8389962000074,244.10015000007115,244.15130440006033,244.53304760006722,j,0.6919611999765038,None,,,test1,007,2025-09-26_09h46.01.019,Priming_gender,,2025.1.1,59.87357095283031,2025-09-26 09h46.10.824867 +0700,
None,None,None,สุพัตรา,men.png,สุพัตรา,10,63,113,174,14,4,,,,k,1.4629991999827325,None,,,,,4,14,174,13,244.57207490003202,,,,,,,,,,,,,,,,,,,,,,,,,244.56165750010405,244.57207490003202,244.57207490003202,244.57207490003202,244.57207490003202,244.57207490003202,244.57207490003202,244.8332051000325,244.88331800000742,246.05038690008223,k,1.4629991999827325,None,,,test1,007,2025-09-26_09h46.01.019,Priming_gender,,2025.1.1,59.87357095283031,2025-09-26 09h46.10.824867 +0700,
None,None,None,None,women.png,ปัทมา,11,69,139,175,15,4,,,,j,0.9362362999236211,None,,,,,4,15,175,39,246.09089440002572,,,,,,,,,,,,,,,,,,,,,,,,,246.07860490004532,246.09089440002572,246.09089440002572,246.09089440002572,246.09089440002572,246.09089440002572,246.09089440002572,246.34997570002452,246.40006080002058,247.0332059999928,j,0.9362362999236211,None,,,test1,007,2025-09-26_09h46.01.019,Priming_gender,,2025.1.1,59.87357095283031,2025-09-26 09h46.10.824867 +0700,
