Male,Female,Image,Name,ImagePriming,NamePriming,ImageTrig,NameTrig,Trig,thisN,thisTrialN,thisRepN,key_resp.keys,key_resp.rt,key_resp.duration,key_resp_3.keys,key_resp_3.rt,key_resp_3.duration,training.thisRepN,training.thisTrialN,training.thisN,training.thisIndex,priming.thisRepN,priming.thisTrialN,priming.thisN,priming.thisIndex,thisRow.t,notes,training_Instruction.started,instruction_slide.started,instruction_continue.started,training_Instruction.stopped,instruction_continue.keys,instruction_continue.rt,instruction_continue.duration,training_block.started,MAN.started,WOMAN.started,pic.started,key_resp.started,training_block.stopped,training.key_resp.keys,training.key_resp.rt,training.key_resp.duration,priming_instruction.started,instruction_slide_2.started,instruction_continue_2.started,priming_instruction.stopped,instruction_continue_2.keys,instruction_continue_2.rt,instruction_continue_2.duration,priming_block.started,MAN_3.started,MAN_3_desc.started,WOMAN_3.started,WOMAN_3_desc.started,name_2.started,key_resp_3.started,pic_2.started,name_2.stopped,priming_block.stopped,priming.key_resp_3.keys,priming.key_resp_3.rt,priming.key_resp_3.duration,Ending.started,Ending.stopped,participant,session,date,expName,expVersion,psychopyVersion,frameRate,expStart,
,,,,,,,,,,,,,,,,,,,,,,,,,,,,0.008851899998262525,0.016471699927933514,0.016471699927933514,3.4189922999357805,space,3.3952566999942064,None,,,,,,,,,,,,,,,,,,,,,,,,,,,,,,,,test1,001,2025-09-26_09h29.00.636,Priming_gender,,2025.1.1,60.39978617722242,2025-09-26 09h29.09.244076 +0700,
กฤษณะ,กาญจนา,men.png,กฤษณะ,men.png,กฤษณะ,10,50,100,0,0,0,k,1.3861846999498084,None,,,,0,0,0,0,,,,,3.4975110999075696,,,,,,,,,3.4809924999717623,3.4975110999075696,3.4975110999075696,3.4975110999075696,3.4975110999075696,4.895298599964008,k,1.3861846999498084,None,,,,,,,,,,,,,,,,,,,,,,,test1,001,2025-09-26_09h29.00.636,Priming_gender,,2025.1.1,60.39978617722242,2025-09-26 09h29.09.244076 +0700,
นเรศ,พิมพ์ใจ,women.png,นเรศ,men.png,นเรศ,10,51,101,1,1,0,j,1.0550750000402331,None,,,,0,1,1,1,,,,,4.948170599993318,,,,,,,,,4.938606899930164,4.948170599993318,4.948170599993318,4.948170599993318,4.948170599993318,6.011568699963391,j,1.0550750000402331,None,,,,,,,,,,,,,,,,,,,,,,,test1,001,2025-09-26_09h29.00.636,Priming_gender,,2025.1.1,60.39978617722242,2025-09-26 09h29.09.244076 +0700,
กฤษณะ,กาญจนา,men.png,กฤษณะ,men.png,กฤษณะ,10,50,100,2,2,1,k,1.1532416999107227,None,,,,1,2,2,0,,,,,6.049926399951801,,,,,,,,,6.040295399958268,6.049926399951801,6.049926399951801,6.049926399951801,6.049926399951801,7.212317899917252,k,1.1532416999107227,None,,,,,,,,,,,,,,,,,,,,,,,test1,001,2025-09-26_09h29.00.636,Priming_gender,,2025.1.1,60.39978617722242,2025-09-26 09h29.09.244076 +0700,
กฤษณะ,กาญจนา,men.png,กฤษณะ,men.png,กฤษณะ,10,50,100,3,3,2,k,2.4801231999881566,None,,,,2,3,3,0,,,,,7.250759799964726,,,,,,,,,7.241184099926613,7.250759799964726,7.250759799964726,7.250759799964726,7.250759799964726,9.745287299971096,k,2.4801231999881566,None,,,,,,,,,,,,,,,,,,,,,,,test1,001,2025-09-26_09h29.00.636,Priming_gender,,2025.1.1,60.39978617722242,2025-09-26 09h29.09.244076 +0700,
นเรศ,พิมพ์ใจ,women.png,นเรศ,men.png,นเรศ,10,51,101,4,4,1,j,0.7321586000034586,None,,,,1,4,4,1,,,,,9.782748500001617,,,,,,,,,9.773257199907675,9.782748500001617,9.782748500001617,9.782748500001617,9.782748500001617,10.527973099960946,j,0.7321586000034586,None,,,,,,,,,,,,,,,,,,,,,,,test1,001,2025-09-26_09h29.00.636,Priming_gender,,2025.1.1,60.39978617722242,2025-09-26 09h29.09.244076 +0700,
กฤษณะ,กาญจนา,men.png,กฤษณะ,men.png,กฤษณะ,10,50,100,5,5,3,k,0.5575184000190347,None,,,,3,5,5,0,,,,,10.56648519996088,,,,,,,,,10.556632499909028,10.56648519996088,10.56648519996088,10.56648519996088,10.56648519996088,11.12924469995778,k,0.5575184000190347,None,,,,,,,,,,,,,,,,,,,,,,,test1,001,2025-09-26_09h29.00.636,Priming_gender,,2025.1.1,60.39978617722242,2025-09-26 09h29.09.244076 +0700,
กฤษณะ,กาญจนา,men.png,กฤษณะ,men.png,กฤษณะ,10,50,100,6,6,4,k,0.9178335999604315,None,,,,4,6,6,0,,,,,11.165801799972542,,,,,,,,,11.156927199917845,11.165801799972542,11.165801799972542,11.165801799972542,11.165801799972542,12.094232099945657,k,0.9178335999604315,None,,,,,,,,,,,,,,,,,,,,,,,test1,001,2025-09-26_09h29.00.636,Priming_gender,,2025.1.1,60.39978617722242,2025-09-26 09h29.09.244076 +0700,
กฤษณะ,กาญจนา,men.png,กฤษณะ,men.png,กฤษณะ,10,50,100,7,7,5,k,1.6956927001010627,None,,,,5,7,7,0,,,,,12.131855699932203,,,,,,,,,12.123145299963653,12.131855699932203,12.131855699932203,12.131855699932203,12.131855699932203,13.844362400006503,k,1.6956927001010627,None,,,,,,,,,,,,,,,,,,,,,,,test1,001,2025-09-26_09h29.00.636,Priming_gender,,2025.1.1,60.39978617722242,2025-09-26 09h29.09.244076 +0700,
นเรศ,พิมพ์ใจ,women.png,นเรศ,men.png,นเรศ,10,51,101,8,8,2,j,1.1950218999991193,None,,,,2,8,8,1,,,,,13.881345999892801,,,,,,,,,13.873040599981323,13.881345999892801,13.881345999892801,13.881345999892801,13.881345999892801,15.078139399993233,j,1.1950218999991193,None,,,,,,,,,,,,,,,,,,,,,,,test1,001,2025-09-26_09h29.00.636,Priming_gender,,2025.1.1,60.39978617722242,2025-09-26 09h29.09.244076 +0700,
นเรศ,พิมพ์ใจ,women.png,นเรศ,men.png,นเรศ,10,51,101,9,9,3,j,1.9096801999257877,None,,,,3,9,9,1,,,,,15.117611499968916,,,,,,,,,15.108237299951725,15.117611499968916,15.117611499968916,15.117611499968916,15.117611499968916,17.028894699993543,j,1.9096801999257877,None,,,,,,,,,,,,,,,,,,,,,,,test1,001,2025-09-26_09h29.00.636,Priming_gender,,2025.1.1,60.39978617722242,2025-09-26 09h29.09.244076 +0700,
นเรศ,พิมพ์ใจ,women.png,นเรศ,men.png,นเรศ,10,51,101,10,10,4,j,2.2954315999522805,None,,,,4,10,10,1,,,,,17.067407199996524,,,,,,,,,17.057500299997628,17.067407199996524,17.067407199996524,17.067407199996524,17.067407199996524,19.377038199920207,j,2.2954315999522805,None,,,,,,,,,,,,,,,,,,,,,,,test1,001,2025-09-26_09h29.00.636,Priming_gender,,2025.1.1,60.39978617722242,2025-09-26 09h29.09.244076 +0700,
นเรศ,พิมพ์ใจ,women.png,นเรศ,men.png,นเรศ,10,51,101,11,11,5,j,0.1897195999044925,None,,,,5,11,11,1,,,,,19.4134541999083,,,,,,,,,19.404918999993242,19.4134541999083,19.4134541999083,19.4134541999083,19.4134541999083,19.610374599928036,j,0.1897195999044925,None,,,,,,,,,,,,,,,,,,,,,,,test1,001,2025-09-26_09h29.00.636,Priming_gender,,2025.1.1,60.39978617722242,2025-09-26 09h29.09.244076 +0700,
กฤษณะ,กาญจนา,men.png,กฤษณะ,men.png,กฤษณะ,10,50,100,12,12,6,k,1.5526971999788657,None,,,,6,12,12,0,,,,,19.65028820000589,,,,,,,,,19.641373499995098,19.65028820000589,19.65028820000589,19.65028820000589,19.65028820000589,21.210624799947254,k,1.5526971999788657,None,,,,,,,,,,,,,,,,,,,,,,,test1,001,2025-09-26_09h29.00.636,Priming_gender,,2025.1.1,60.39978617722242,2025-09-26 09h29.09.244076 +0700,
นเรศ,พิมพ์ใจ,women.png,นเรศ,men.png,นเรศ,10,51,101,13,13,6,j,1.2033729999093339,None,,,,6,13,13,1,,,,,21.24836399999913,,,,,,,,,21.240299299941398,21.24836399999913,21.24836399999913,21.24836399999913,21.24836399999913,22.46121769992169,j,1.2033729999093339,None,,,,,,,,,,,,,,,,,,,,,,,test1,001,2025-09-26_09h29.00.636,Priming_gender,,2025.1.1,60.39978617722242,2025-09-26 09h29.09.244076 +0700,
กฤษณะ,กาญจนา,men.png,กฤษณะ,men.png,กฤษณะ,10,50,100,14,14,7,k,0.9174437000183389,None,,,,7,14,14,0,,,,,22.510253199958242,,,,,,,,,22.501173899974674,22.510253199958242,22.510253199958242,22.510253199958242,22.510253199958242,23.443765599979088,k,0.9174437000183389,None,,,,,,,,,,,,,,,,,,,,,,,test1,001,2025-09-26_09h29.00.636,Priming_gender,,2025.1.1,60.39978617722242,2025-09-26 09h29.09.244076 +0700,
นเรศ,พิมพ์ใจ,women.png,นเรศ,men.png,นเรศ,10,51,101,15,15,7,j,0.9344733000034466,None,,,,7,15,15,1,,,,,23.485130699933507,,,,,,,,,23.477228299947456,23.485130699933507,23.485130699933507,23.485130699933507,23.485130699933507,24.427568799932487,j,0.9344733000034466,None,,,,,,,,,,,,,,,,,,,,,,,test1,001,2025-09-26_09h29.00.636,Priming_gender,,2025.1.1,60.39978617722242,2025-09-26 09h29.09.244076 +0700,
กฤษณะ,กาญจนา,men.png,กฤษณะ,men.png,กฤษณะ,10,50,100,16,16,8,k,0.8505138999316841,None,,,,8,16,16,0,,,,,24.46501259994693,,,,,,,,,24.456348499981686,24.46501259994693,24.46501259994693,24.46501259994693,24.46501259994693,25.326868299976923,k,0.8505138999316841,None,,,,,,,,,,,,,,,,,,,,,,,test1,001,2025-09-26_09h29.00.636,Priming_gender,,2025.1.1,60.39978617722242,2025-09-26 09h29.09.244076 +0700,
กฤษณะ,กาญจนา,men.png,กฤษณะ,men.png,กฤษณะ,10,50,100,17,17,9,k,0.7352947999024764,None,,,,9,17,17,0,,,,,25.364039000007324,,,,,,,,,25.354629099951126,25.364039000007324,25.364039000007324,25.364039000007324,25.364039000007324,26.110140799893998,k,0.7352947999024764,None,,,,,,,,,,,,,,,,,,,,,,,test1,001,2025-09-26_09h29.00.636,Priming_gender,,2025.1.1,60.39978617722242,2025-09-26 09h29.09.244076 +0700,
นเรศ,พิมพ์ใจ,women.png,นเรศ,men.png,นเรศ,10,51,101,18,18,8,j,1.1215739999897778,None,,,,8,18,18,1,,,,,26.14585539989639,,,,,,,,,26.138154099928215,26.14585539989639,26.14585539989639,26.14585539989639,26.14585539989639,27.277105199988,j,1.1215739999897778,None,,,,,,,,,,,,,,,,,,,,,,,test1,001,2025-09-26_09h29.00.636,Priming_gender,,2025.1.1,60.39978617722242,2025-09-26 09h29.09.244076 +0700,
กฤษณะ,กาญจนา,men.png,กฤษณะ,men.png,กฤษณะ,10,50,100,19,19,10,k,0.9286536999279633,None,,,,10,19,19,0,,,,,27.315111099975184,,,,,,,,,27.305896000005305,27.315111099975184,27.315111099975184,27.315111099975184,27.315111099975184,28.260912199970335,k,0.9286536999279633,None,,,,,,,,,,,,,,,,,,,,,,,test1,001,2025-09-26_09h29.00.636,Priming_gender,,2025.1.1,60.39978617722242,2025-09-26 09h29.09.244076 +0700,
กฤษณะ,กาญจนา,men.png,กฤษณะ,men.png,กฤษณะ,10,50,100,20,20,11,k,0.8737263000803068,None,,,,11,20,20,0,,,,,28.2979341999162,,,,,,,,,28.289193199947476,28.2979341999162,28.2979341999162,28.2979341999162,28.2979341999162,29.17756099998951,k,0.8737263000803068,None,,,,,,,,,,,,,,,,,,,,,,,test1,001,2025-09-26_09h29.00.636,Priming_gender,,2025.1.1,60.39978617722242,2025-09-26 09h29.09.244076 +0700,
นเรศ,พิมพ์ใจ,women.png,นเรศ,men.png,นเรศ,10,51,101,21,21,9,j,1.1548138000071049,None,,,,9,21,21,1,,,,,29.216787199955434,,,,,,,,,29.208027299959213,29.216787199955434,29.216787199955434,29.216787199955434,29.216787199955434,30.376994299935177,j,1.1548138000071049,None,,,,,,,,,,,,,,,,,,,,,,,test1,001,2025-09-26_09h29.00.636,Priming_gender,,2025.1.1,60.39978617722242,2025-09-26 09h29.09.244076 +0700,
กฤษณะ,กาญจนา,men.png,กฤษณะ,men.png,กฤษณะ,10,50,100,22,22,12,k,1.1872639000648633,None,,,,12,22,22,0,,,,,30.41578259994276,,,,,,,,,30.406010299921036,30.41578259994276,30.41578259994276,30.41578259994276,30.41578259994276,31.609586199978366,k,1.1872639000648633,None,,,,,,,,,,,,,,,,,,,,,,,test1,001,2025-09-26_09h29.00.636,Priming_gender,,2025.1.1,60.39978617722242,2025-09-26 09h29.09.244076 +0700,
นเรศ,พิมพ์ใจ,women.png,นเรศ,men.png,นเรศ,10,51,101,23,23,10,j,1.124369400087744,None,,,,10,23,23,1,,,,,31.647084199939854,,,,,,,,,31.63797689997591,31.647084199939854,31.647084199939854,31.647084199939854,31.647084199939854,32.77673229994252,j,1.124369400087744,None,,,,,,,,,,,,,,,,,,,,,,,test1,001,2025-09-26_09h29.00.636,Priming_gender,,2025.1.1,60.39978617722242,2025-09-26 09h29.09.244076 +0700,
นเรศ,พิมพ์ใจ,women.png,นเรศ,men.png,นเรศ,10,51,101,24,24,11,j,0.8362615000223741,None,,,,11,24,24,1,,,,,32.81517079996411,,,,,,,,,32.80558769998606,32.81517079996411,32.81517079996411,32.81517079996411,32.81517079996411,33.65977109991945,j,0.8362615000223741,None,,,,,,,,,,,,,,,,,,,,,,,test1,001,2025-09-26_09h29.00.636,Priming_gender,,2025.1.1,60.39978617722242,2025-09-26 09h29.09.244076 +0700,
กฤษณะ,กาญจนา,men.png,กฤษณะ,men.png,กฤษณะ,10,50,100,25,25,13,k,1.8753127999370918,None,,,,13,25,25,0,,,,,33.69655029999558,,,,,,,,,33.68813039991073,33.69655029999558,33.69655029999558,33.69655029999558,33.69655029999558,35.57695249991957,k,1.8753127999370918,None,,,,,,,,,,,,,,,,,,,,,,,test1,001,2025-09-26_09h29.00.636,Priming_gender,,2025.1.1,60.39978617722242,2025-09-26 09h29.09.244076 +0700,
นเรศ,พิมพ์ใจ,women.png,นเรศ,men.png,นเรศ,10,51,101,26,26,12,j,0.9644780000671744,None,,,,12,26,26,1,,,,,35.61456859996542,,,,,,,,,35.60571509995498,35.61456859996542,35.61456859996542,35.61456859996542,35.61456859996542,36.59263430000283,j,0.9644780000671744,None,,,,,,,,,,,,,,,,,,,,,,,test1,001,2025-09-26_09h29.00.636,Priming_gender,,2025.1.1,60.39978617722242,2025-09-26 09h29.09.244076 +0700,
นเรศ,พิมพ์ใจ,women.png,นเรศ,men.png,นเรศ,10,51,101,27,27,13,j,0.47987949999514967,None,,,,13,27,27,1,,,,,36.62777989997994,,,,,,,,,36.62008559994865,36.62777989997994,36.62777989997994,36.62777989997994,36.62777989997994,37.10919109999668,j,0.47987949999514967,None,,,,,,,,,,,,,,,,,,,,,,,test1,001,2025-09-26_09h29.00.636,Priming_gender,,2025.1.1,60.39978617722242,2025-09-26 09h29.09.244076 +0700,
นเรศ,พิมพ์ใจ,women.png,นเรศ,men.png,นเรศ,10,51,101,28,28,14,j,1.7370532000204548,None,,,,14,28,28,1,,,,,37.14658749999944,,,,,,,,,37.137950300006196,37.14658749999944,37.14658749999944,37.14658749999944,37.14658749999944,38.89306759997271,j,1.7370532000204548,None,,,,,,,,,,,,,,,,,,,,,,,test1,001,2025-09-26_09h29.00.636,Priming_gender,,2025.1.1,60.39978617722242,2025-09-26 09h29.09.244076 +0700,
กฤษณะ,กาญจนา,men.png,กฤษณะ,men.png,กฤษณะ,10,50,100,29,29,14,k,1.1387352999299765,None,,,,14,29,29,0,,,,,38.92919639998581,,,,,,,,,38.92109459999483,38.92919639998581,38.92919639998581,38.92919639998581,38.92919639998581,40.07615759992041,k,1.1387352999299765,None,,,,,,,,,,,,,,,,,,,,,,,test1,001,2025-09-26_09h29.00.636,Priming_gender,,2025.1.1,60.39978617722242,2025-09-26 09h29.09.244076 +0700,
กฤษณะ,กาญจนา,men.png,กฤษณะ,men.png,กฤษณะ,10,50,100,30,30,15,k,1.506580000044778,None,,,,15,30,30,0,,,,,40.113383399904706,,,,,,,,,40.103699399973266,40.113383399904706,40.113383399904706,40.113383399904706,40.113383399904706,41.62569669994991,k,1.506580000044778,None,,,,,,,,,,,,,,,,,,,,,,,test1,001,2025-09-26_09h29.00.636,Priming_gender,,2025.1.1,60.39978617722242,2025-09-26 09h29.09.244076 +0700,
กฤษณะ,กาญจนา,men.png,กฤษณะ,men.png,กฤษณะ,10,50,100,31,31,16,k,1.253602100070566,None,,,,16,31,31,0,,,,,41.66203599993605,,,,,,,,,41.65431879996322,41.66203599993605,41.66203599993605,41.66203599993605,41.66203599993605,42.92639659997076,k,1.253602100070566,None,,,,,,,,,,,,,,,,,,,,,,,test1,001,2025-09-26_09h29.00.636,Priming_gender,,2025.1.1,60.39978617722242,2025-09-26 09h29.09.244076 +0700,
นเรศ,พิมพ์ใจ,women.png,นเรศ,men.png,นเรศ,10,51,101,32,32,15,j,1.6801588999805972,None,,,,15,32,32,1,,,,,42.962940700002946,,,,,,,,,42.954773999983445,42.962940700002946,42.962940700002946,42.962940700002946,42.962940700002946,44.658726699999534,j,1.6801588999805972,None,,,,,,,,,,,,,,,,,,,,,,,test1,001,2025-09-26_09h29.00.636,Priming_gender,,2025.1.1,60.39978617722242,2025-09-26 09h29.09.244076 +0700,
นเรศ,พิมพ์ใจ,women.png,นเรศ,men.png,นเรศ,10,51,101,33,33,16,j,0.7468687000218779,None,,,,16,33,33,1,,,,,44.696304099983536,,,,,,,,,44.6873969999142,44.696304099983536,44.696304099983536,44.696304099983536,44.696304099983536,45.458876699907705,j,0.7468687000218779,None,,,,,,,,,,,,,,,,,,,,,,,test1,001,2025-09-26_09h29.00.636,Priming_gender,,2025.1.1,60.39978617722242,2025-09-26 09h29.09.244076 +0700,
กฤษณะ,กาญจนา,men.png,กฤษณะ,men.png,กฤษณะ,10,50,100,34,34,17,k,1.2294147000648081,None,,,,17,34,34,0,,,,,45.4942264999263,,,,,,,,,45.48703269998077,45.4942264999263,45.4942264999263,45.4942264999263,45.4942264999263,46.72558649990242,k,1.2294147000648081,None,,,,,,,,,,,,,,,,,,,,,,,test1,001,2025-09-26_09h29.00.636,Priming_gender,,2025.1.1,60.39978617722242,2025-09-26 09h29.09.244076 +0700,
นเรศ,พิมพ์ใจ,women.png,นเรศ,men.png,นเรศ,10,51,101,35,35,17,j,0.5651336999144405,None,,,,17,35,35,1,,,,,46.76601689995732,,,,,,,,,46.75708459992893,46.76601689995732,46.76601689995732,46.76601689995732,46.76601689995732,47.342160500003956,j,0.5651336999144405,None,,,,,,,,,,,,,,,,,,,,,,,test1,001,2025-09-26_09h29.00.636,Priming_gender,,2025.1.1,60.39978617722242,2025-09-26 09h29.09.244076 +0700,
กฤษณะ,กาญจนา,men.png,กฤษณะ,men.png,กฤษณะ,10,50,100,36,36,18,k,0.6891785999760032,None,,,,18,36,36,0,,,,,47.37844599992968,,,,,,,,,47.371120099909604,47.37844599992968,47.37844599992968,47.37844599992968,47.37844599992968,48.075310999993235,k,0.6891785999760032,None,,,,,,,,,,,,,,,,,,,,,,,test1,001,2025-09-26_09h29.00.636,Priming_gender,,2025.1.1,60.39978617722242,2025-09-26 09h29.09.244076 +0700,
นเรศ,พิมพ์ใจ,women.png,นเรศ,men.png,นเรศ,10,51,101,37,37,18,j,0.5458805999951437,None,,,,18,37,37,1,,,,,48.11337109992746,,,,,,,,,48.10398079990409,48.11337109992746,48.11337109992746,48.11337109992746,48.11337109992746,48.675555899972096,j,0.5458805999951437,None,,,,,,,,,,,,,,,,,,,,,,,test1,001,2025-09-26_09h29.00.636,Priming_gender,,2025.1.1,60.39978617722242,2025-09-26 09h29.09.244076 +0700,
กฤษณะ,กาญจนา,men.png,กฤษณะ,men.png,กฤษณะ,10,50,100,38,38,19,k,0.6027929000556469,None,,,,19,38,38,0,,,,,48.71250659995712,,,,,,,,,48.70411910000257,48.71250659995712,48.71250659995712,48.71250659995712,48.71250659995712,49.325025699916296,k,0.6027929000556469,None,,,,,,,,,,,,,,,,,,,,,,,test1,001,2025-09-26_09h29.00.636,Priming_gender,,2025.1.1,60.39978617722242,2025-09-26 09h29.09.244076 +0700,
นเรศ,พิมพ์ใจ,women.png,นเรศ,men.png,นเรศ,10,51,101,39,39,19,j,0.5465217001037672,None,,,,19,39,39,1,,,,,49.361213099909946,,,,,,,,,49.353469499968924,49.361213099909946,49.361213099909946,49.361213099909946,49.361213099909946,49.90935929992702,j,0.5465217001037672,None,,,,,,,,,,,,,,,,,,,,,,,test1,001,2025-09-26_09h29.00.636,Priming_gender,,2025.1.1,60.39978617722242,2025-09-26 09h29.09.244076 +0700,
,,,,,,,,,,,,,,,,,,,,,,,,,,,,,,,,,,,,,,,,,,,,49.90951219992712,49.92706859996542,49.92706859996542,54.22713039990049,space,4.2843147000530735,None,,,,,,,,,,,,,,,,test1,001,2025-09-26_09h29.00.636,Priming_gender,,2025.1.1,60.39978617722242,2025-09-26 09h29.09.244076 +0700,
None,None,None,None,women.png,สุนิสา,11,68,138,0,0,0,,,,j,0.9706807000329718,None,,,,,0,0,0,38,54.3120603999123,,,,,,,,,,,,,,,,,,,,,,,,,54.275002599926665,54.3120603999123,54.3120603999123,54.3120603999123,54.3120603999123,54.3120603999123,54.3120603999123,54.54163319990039,54.625737299909815,55.291689299978316,j,0.9706807000329718,None,,,test1,001,2025-09-26_09h29.00.636,Priming_gender,,2025.1.1,60.39978617722242,2025-09-26 09h29.09.244076 +0700,
None,None,None,พิมพ์ใจ,men.png,พิมพ์ใจ,10,61,111,1,1,0,,,,k,1.6802353999810293,None,,,,,0,1,1,11,55.34628049994353,,,,,,,,,,,,,,,,,,,,,,,,,55.33434359997045,55.34628049994353,55.34628049994353,55.34628049994353,55.34628049994353,55.34628049994353,55.34628049994353,55.592279199976474,55.65801279991865,57.04183319990989,k,1.6802353999810293,None,,,test1,001,2025-09-26_09h29.00.636,Priming_gender,,2025.1.1,60.39978617722242,2025-09-26 09h29.09.244076 +0700,
None,None,None,จิตติมา,men.png,จิตติมา,10,66,116,2,2,0,,,,j,1.4118722000857815,None,,,,,0,2,2,16,57.08701989997644,,,,,,,,,,,,,,,,,,,,,,,,,57.07498129992746,57.08701989997644,57.08701989997644,57.08701989997644,57.08701989997644,57.08701989997644,57.08701989997644,57.34147879993543,57.39149519999046,58.50828859989997,j,1.4118722000857815,None,,,test1,001,2025-09-26_09h29.00.636,Priming_gender,,2025.1.1,60.39978617722242,2025-09-26 09h29.09.244076 +0700,
ศักดิ์สิทธิ์,สุนิสา,None,ศักดิ์สิทธิ์,men.png,ศักดิ์สิทธิ์,10,58,108,3,3,0,,,,k,1.195724599994719,None,,,,,0,3,3,8,58.56730469991453,,,,,,,,,,,,,,,,,,,,,,,,,58.551474099978805,58.56730469991453,58.56730469991453,58.56730469991453,58.56730469991453,58.56730469991453,58.56730469991453,58.80844839999918,58.87500389991328,59.7749698999105,k,1.195724599994719,None,,,test1,001,2025-09-26_09h29.00.636,Priming_gender,,2025.1.1,60.39978617722242,2025-09-26 09h29.09.244076 +0700,
ธนพล,วาสนา,None,ธนพล,men.png,ธนพล,10,52,102,4,4,0,,,,k,0.9191190999699757,None,,,,,0,4,4,2,59.820187099976465,,,,,,,,,,,,,,,,,,,,,,,,,59.80653499998152,59.820187099976465,59.820187099976465,59.820187099976465,59.820187099976465,59.820187099976465,59.820187099976465,60.09141130000353,60.12478739989456,60.741491699940525,k,0.9191190999699757,None,,,test1,001,2025-09-26_09h29.00.636,Priming_gender,,2025.1.1,60.39978617722242,2025-09-26 09h29.09.244076 +0700,
None,None,None,กาญจนา,men.png,กาญจนา,10,60,110,5,5,0,,,,k,1.857182800071314,None,,,,,0,5,5,10,60.785321999923326,,,,,,,,,,,,,,,,,,,,,,,,,60.77367299993057,60.785321999923326,60.785321999923326,60.785321999923326,60.785321999923326,60.785321999923326,60.785321999923326,61.04151159990579,61.0903981999727,62.657846199930646,k,1.857182800071314,None,,,test1,001,2025-09-26_09h29.00.636,Priming_gender,,2025.1.1,60.39978617722242,2025-09-26 09h29.09.244076 +0700,
None,None,None,None,women.png,วาสนา,11,62,132,6,6,0,,,,j,0.9781915000639856,None,,,,,0,6,6,32,62.70484579994809,,,,,,,,,,,,,,,,,,,,,,,,,62.6916364999488,62.70484579994809,62.70484579994809,62.70484579994809,62.70484579994809,62.70484579994809,62.70484579994809,62.958028899971396,63.00805249996483,63.69170799991116,j,0.9781915000639856,None,,,test1,001,2025-09-26_09h29.00.636,Priming_gender,,2025.1.1,60.39978617722242,2025-09-26 09h29.09.244076 +0700,
None,None,None,None,women.png,พิสิฐ,11,59,129,7,7,0,,,,j,3.0028595000039786,None,,,,,0,7,7,29,63.73649169993587,,,,,,,,,,,,,,,,,,,,,,,,,63.72466700000223,63.73649169993587,63.73649169993587,63.73649169993587,63.73649169993587,63.73649169993587,63.73649169993587,64.00797889998648,64.040355599951,66.74150459992234,j,3.0028595000039786,None,,,test1,001,2025-09-26_09h29.00.636,Priming_gender,,2025.1.1,60.39978617722242,2025-09-26 09h29.09.244076 +0700,
นเรศ,พิมพ์ใจ,women.png,นเรศ,men.png,นเรศ,10,51,101,8,8,0,,,,k,1.3754828000674024,None,,,,,0,8,8,1,66.78779079997912,,,,,,,,,,,,,,,,,,,,,,,,,66.77516899991315,66.78779079997912,66.78779079997912,66.78779079997912,66.78779079997912,66.78779079997912,66.78779079997912,67.0411327999318,67.09113650000654,68.17489139991812,k,1.3754828000674024,None,,,test1,001,2025-09-26_09h29.00.636,Priming_gender,,2025.1.1,60.39978617722242,2025-09-26 09h29.09.244076 +0700,
None,None,None,สุพัตรา,men.png,สุพัตรา,10,63,113,9,9,0,,,,k,1.3057754000183195,None,,,,,0,9,9,13,68.21738769998774,,,,,,,,,,,,,,,,,,,,,,,,,68.20526089996565,68.21738769998774,68.21738769998774,68.21738769998774,68.21738769998774,68.21738769998774,68.21738769998774,68.49130150000565,68.52390179992653,69.5243370999815,k,1.3057754000183195,None,,,test1,001,2025-09-26_09h29.00.636,Priming_gender,,2025.1.1,60.39978617722242,2025-09-26 09h29.09.244076 +0700,
None,None,None,None,women.png,ภูมิพัฒน์,11,56,126,10,10,0,,,,j,1.580413900082931,None,,,,,0,10,10,26,69.57442739990074,,,,,,,,,,,,,,,,,,,,,,,,,69.5622078999877,69.57442739990074,69.57442739990074,69.57442739990074,69.57442739990074,69.57442739990074,69.57442739990074,69.8243573999498,69.87514609994832,71.15731369995046,j,1.580413900082931,None,,,test1,001,2025-09-26_09h29.00.636,Priming_gender,,2025.1.1,60.39978617722242,2025-09-26 09h29.09.244076 +0700,
None,None,None,None,women.png,สุพัตรา,11,63,133,11,11,0,,,,j,0.9774786999914795,None,,,,,0,11,11,33,71.20101849990897,,,,,,,,,,,,,,,,,,,,,,,,,71.1881433998933,71.20101849990897,71.20101849990897,71.20101849990897,71.20101849990897,71.20101849990897,71.20101849990897,71.45885659998748,71.5073922999436,72.19214189995546,j,0.9774786999914795,None,,,test1,001,2025-09-26_09h29.00.636,Priming_gender,,2025.1.1,60.39978617722242,2025-09-26 09h29.09.244076 +0700,
None,None,None,วรรณา,men.png,วรรณา,10,67,117,12,12,0,,,,k,1.3765904000028968,None,,,,,0,12,12,17,72.24278669990599,,,,,,,,,,,,,,,,,,,,,,,,,72.22927299991716,72.24278669990599,72.24278669990599,72.24278669990599,72.24278669990599,72.24278669990599,72.24278669990599,72.50716659997124,72.55777139996644,73.62382059998345,k,1.3765904000028968,None,,,test1,001,2025-09-26_09h29.00.636,Priming_gender,,2025.1.1,60.39978617722242,2025-09-26 09h29.09.244076 +0700,
None,None,None,None,women.png,ศักดิ์สิทธิ์,11,58,128,13,13,0,,,,j,1.5710734000895172,None,,,,,0,13,13,28,73.66454949998297,,,,,,,,,,,,,,,,,,,,,,,,,73.6522202999331,73.66454949998297,73.66454949998297,73.66454949998297,73.66454949998297,73.66454949998297,73.66454949998297,73.92532159993425,73.97359469998628,75.2404260999756,j,1.5710734000895172,None,,,test1,001,2025-09-26_09h29.00.636,Priming_gender,,2025.1.1,60.39978617722242,2025-09-26 09h29.09.244076 +0700,
None,None,None,None,women.png,พิมพ์ใจ,11,61,131,14,14,0,,,,j,1.0894930999493226,None,,,,,0,14,14,31,75.28160180000123,,,,,,,,,,,,,,,,,,,,,,,,,75.26985419995617,75.28160180000123,75.28160180000123,75.28160180000123,75.28160180000123,75.28160180000123,75.28160180000123,75.54133619996719,75.59042159991805,76.37439269991592,j,1.0894930999493226,None,,,test1,001,2025-09-26_09h29.00.636,Priming_gender,,2025.1.1,60.39978617722242,2025-09-26 09h29.09.244076 +0700,
None,None,None,None,women.png,ปัทมา,11,69,139,15,15,0,,,,j,1.0175393999088556,None,,,,,0,15,15,39,76.42547279992141,,,,,,,,,,,,,,,,,,,,,,,,,76.41192499990575,76.42547279992141,76.42547279992141,76.42547279992141,76.42547279992141,76.42547279992141,76.42547279992141,76.67421079997439,76.7406539999647,77.45781109994277,j,1.0175393999088556,None,,,test1,001,2025-09-26_09h29.00.636,Priming_gender,,2025.1.1,60.39978617722242,2025-09-26 09h29.09.244076 +0700,
None,None,None,None,women.png,วรพล,11,57,127,16,16,0,,,,k,1.3520790999755263,None,,,,,0,16,16,27,77.49859749991447,,,,,,,,,,,,,,,,,,,,,,,,,77.48674709990155,77.49859749991447,77.49859749991447,77.49859749991447,77.49859749991447,77.49859749991447,77.49859749991447,77.7585438999813,77.80825189989991,78.85670139989816,k,1.3520790999755263,None,,,test1,001,2025-09-26_09h29.00.636,Priming_gender,,2025.1.1,60.39978617722242,2025-09-26 09h29.09.244076 +0700,
วรพล,วรรณา,None,วรพล,men.png,วรพล,10,57,107,17,17,0,,,,k,2.6897452000994235,None,,,,,0,17,17,7,78.89732849993743,,,,,,,,,,,,,,,,,,,,,,,,,78.88477379991673,78.89732849993743,78.89732849993743,78.89732849993743,78.89732849993743,78.89732849993743,78.89732849993743,79.15715869993437,79.20738869998604,81.59014149999712,k,2.6897452000994235,None,,,test1,001,2025-09-26_09h29.00.636,Priming_gender,,2025.1.1,60.39978617722242,2025-09-26 09h29.09.244076 +0700,
None,None,None,None,women.png,อาภรณ์,11,65,135,18,18,0,,,,j,1.0541900000534952,None,,,,,0,18,18,35,81.63620919990353,,,,,,,,,,,,,,,,,,,,,,,,,81.62269789993297,81.63620919990353,81.63620919990353,81.63620919990353,81.63620919990353,81.63620919990353,81.63620919990353,81.88974149990827,81.94049660000019,82.70655399991665,j,1.0541900000534952,None,,,test1,001,2025-09-26_09h29.00.636,Priming_gender,,2025.1.1,60.39978617722242,2025-09-26 09h29.09.244076 +0700,
None,None,None,อาภรณ์,men.png,อาภรณ์,10,65,115,19,19,0,,,,k,1.78464820003137,None,,,,,0,19,19,15,82.74663159996271,,,,,,,,,,,,,,,,,,,,,,,,,82.736276099924,82.74663159996271,82.74663159996271,82.74663159996271,82.74663159996271,82.74663159996271,82.74663159996271,83.00773389998358,83.0563378999941,84.54076709994115,k,1.78464820003137,None,,,test1,001,2025-09-26_09h29.00.636,Priming_gender,,2025.1.1,60.39978617722242,2025-09-26 09h29.09.244076 +0700,
อรรถพล,สุพัตรา,None,อรรถพล,men.png,อรรถพล,10,53,103,20,20,0,,,,k,2.889123799977824,None,,,,,0,20,20,3,84.58558799989987,,,,,,,,,,,,,,,,,,,,,,,,,84.57207039999776,84.58558799989987,84.58558799989987,84.58558799989987,84.58558799989987,84.58558799989987,84.58558799989987,84.85691370000131,84.89011949999258,87.48959489993285,k,2.889123799977824,None,,,test1,001,2025-09-26_09h29.00.636,Priming_gender,,2025.1.1,60.39978617722242,2025-09-26 09h29.09.244076 +0700,
ปริญญา,อาภรณ์,None,ปริญญา,men.png,ปริญญา,10,55,105,21,21,0,,,,k,1.288017600076273,None,,,,,0,21,21,5,87.53123819991015,,,,,,,,,,,,,,,,,,,,,,,,,87.51930299995001,87.53123819991015,87.53123819991015,87.53123819991015,87.53123819991015,87.53123819991015,87.53123819991015,87.79047939996235,87.8399479999207,88.82307549996767,k,1.288017600076273,None,,,test1,001,2025-09-26_09h29.00.636,Priming_gender,,2025.1.1,60.39978617722242,2025-09-26 09h29.09.244076 +0700,
None,None,None,None,women.png,นเรศ,11,51,121,22,22,0,,,,j,1.3480729999719188,None,,,,,0,22,22,21,88.86219599994365,,,,,,,,,,,,,,,,,,,,,,,,,88.85030339995865,88.86219599994365,88.86219599994365,88.86219599994365,88.86219599994365,88.86219599994365,88.86219599994365,89.12317899998743,89.17333319992758,90.2227891999064,j,1.3480729999719188,None,,,test1,001,2025-09-26_09h29.00.636,Priming_gender,,2025.1.1,60.39978617722242,2025-09-26 09h29.09.244076 +0700,
กฤษณะ,กาญจนา,men.png,กฤษณะ,men.png,กฤษณะ,10,50,100,23,23,0,,,,k,1.027668800088577,None,,,,,0,23,23,0,90.27139609993901,,,,,,,,,,,,,,,,,,,,,,,,,90.25888380000833,90.27139609993901,90.27139609993901,90.27139609993901,90.27139609993901,90.27139609993901,90.27139609993901,90.52427389996592,90.57436400000006,91.30682810000144,k,1.027668800088577,None,,,test1,001,2025-09-26_09h29.00.636,Priming_gender,,2025.1.1,60.39978617722242,2025-09-26 09h29.09.244076 +0700,
ภูมิพัฒน์,จิตติมา,None,ภูมิพัฒน์,men.png,ภูมิพัฒน์,10,56,106,24,24,0,,,,k,0.688488999963738,None,,,,,0,24,24,6,91.347032199963,,,,,,,,,,,,,,,,,,,,,,,,,91.33585049991962,91.347032199963,91.347032199963,91.347032199963,91.347032199963,91.347032199963,91.347032199963,91.6057981000049,91.65770199999679,92.03963299992029,k,0.688488999963738,None,,,test1,001,2025-09-26_09h29.00.636,Priming_gender,,2025.1.1,60.39978617722242,2025-09-26 09h29.09.244076 +0700,
None,None,None,None,women.png,ชัยวัฒน์,11,54,124,25,25,0,,,,j,1.549263900029473,None,,,,,0,25,25,24,92.08655389992055,,,,,,,,,,,,,,,,,,,,,,,,,92.07375749992207,92.08655389992055,92.08655389992055,92.08655389992055,92.08655389992055,92.08655389992055,92.08655389992055,92.34069219999947,92.38977069989778,93.63932909991127,j,1.549263900029473,None,,,test1,001,2025-09-26_09h29.00.636,Priming_gender,,2025.1.1,60.39978617722242,2025-09-26 09h29.09.244076 +0700,
None,None,None,วาสนา,men.png,วาสนา,10,62,112,26,26,0,,,,k,1.6041798000223935,None,,,,,0,26,26,12,93.67880979995243,,,,,,,,,,,,,,,,,,,,,,,,,93.66666329989675,93.67880979995243,93.67880979995243,93.67880979995243,93.67880979995243,93.67880979995243,93.67880979995243,93.94066179997753,93.98980619991198,95.28952150000259,k,1.6041798000223935,None,,,test1,001,2025-09-26_09h29.00.636,Priming_gender,,2025.1.1,60.39978617722242,2025-09-26 09h29.09.244076 +0700,
None,None,None,สุนิสา,men.png,สุนิสา,10,68,118,27,27,0,,,,k,1.1515393999870867,None,,,,,0,27,27,18,95.33127819991205,,,,,,,,,,,,,,,,,,,,,,,,,95.31838529999368,95.33127819991205,95.33127819991205,95.33127819991205,95.33127819991205,95.33127819991205,95.33127819991205,95.59108359995298,95.63946879992727,96.48922109999694,k,1.1515393999870867,None,,,test1,001,2025-09-26_09h29.00.636,Priming_gender,,2025.1.1,60.39978617722242,2025-09-26 09h29.09.244076 +0700,
None,None,None,None,women.png,อรรถพล,11,53,123,28,28,0,,,,j,1.4708514000521973,None,,,,,0,28,28,23,96.53309399995487,,,,,,,,,,,,,,,,,,,,,,,,,96.519524000003,96.53309399995487,96.53309399995487,96.53309399995487,96.53309399995487,96.53309399995487,96.53309399995487,96.80607869999949,96.83907429990359,98.005864799954,j,1.4708514000521973,None,,,test1,001,2025-09-26_09h29.00.636,Priming_gender,,2025.1.1,60.39978617722242,2025-09-26 09h29.09.244076 +0700,
None,None,None,None,women.png,วรรณา,11,67,137,29,29,0,,,,j,1.3660872000036761,None,,,,,0,29,29,37,98.04434839996975,,,,,,,,,,,,,,,,,,,,,,,,,98.0329938000068,98.04434839996975,98.04434839996975,98.04434839996975,98.04434839996975,98.04434839996975,98.04434839996975,98.30567369994242,98.35647070000414,99.42270829994231,j,1.3660872000036761,None,,,test1,001,2025-09-26_09h29.00.636,Priming_gender,,2025.1.1,60.39978617722242,2025-09-26 09h29.09.244076 +0700,
None,None,None,ปัทมา,men.png,ปัทมา,10,69,119,30,30,0,,,,k,0.9391943999798968,None,,,,,0,30,30,19,99.46333189995494,,,,,,,,,,,,,,,,,,,,,,,,,99.45087019994389,99.46333189995494,99.46333189995494,99.46333189995494,99.46333189995494,99.46333189995494,99.46333189995494,99.73982769995928,99.772445499897,100.40669159998652,k,0.9391943999798968,None,,,test1,001,2025-09-26_09h29.00.636,Priming_gender,,2025.1.1,60.39978617722242,2025-09-26 09h29.09.244076 +0700,
None,None,None,None,women.png,กฤษณะ,11,50,120,31,31,0,,,,j,1.0131637000013143,None,,,,,0,31,31,20,100.44525499991141,,,,,,,,,,,,,,,,,,,,,,,,,100.43396109994501,100.44525499991141,100.44525499991141,100.44525499991141,100.44525499991141,100.44525499991141,100.44525499991141,100.7229948999593,100.75569579994772,101.47338799992576,j,1.0131637000013143,None,,,test1,001,2025-09-26_09h29.00.636,Priming_gender,,2025.1.1,60.39978617722242,2025-09-26 09h29.09.244076 +0700,
พิสิฐ,ปัทมา,None,พิสิฐ,men.png,พิสิฐ,10,59,109,32,32,0,,,,k,1.2592458999715745,None,,,,,0,32,32,9,101.51219029992353,,,,,,,,,,,,,,,,,,,,,,,,,101.50167699996382,101.51219029992353,101.51219029992353,101.51219029992353,101.51219029992353,101.51219029992353,101.51219029992353,101.78987399989273,101.82418989995494,102.77284889994189,k,1.2592458999715745,None,,,test1,001,2025-09-26_09h29.00.636,Priming_gender,,2025.1.1,60.39978617722242,2025-09-26 09h29.09.244076 +0700,
None,None,None,None,women.png,ปริญญา,11,55,125,33,33,0,,,,j,1.2233153999550268,None,,,,,0,33,33,25,102.81211509997956,,,,,,,,,,,,,,,,,,,,,,,,,102.80103719991166,102.81211509997956,102.81211509997956,102.81211509997956,102.81211509997956,102.81211509997956,102.81211509997956,103.07388869998977,103.12199649994727,104.03907939989585,j,1.2233153999550268,None,,,test1,001,2025-09-26_09h29.00.636,Priming_gender,,2025.1.1,60.39978617722242,2025-09-26 09h29.09.244076 +0700,
None,None,None,None,women.png,จิตติมา,11,66,136,34,34,0,,,,j,1.0426633999450132,None,,,,,0,34,34,36,104.08006169996224,,,,,,,,,,,,,,,,,,,,,,,,,104.068054299918,104.08006169996224,104.08006169996224,104.08006169996224,104.08006169996224,104.08006169996224,104.08006169996224,104.3556813999312,104.38896829995792,105.13854239997454,j,1.0426633999450132,None,,,test1,001,2025-09-26_09h29.00.636,Priming_gender,,2025.1.1,60.39978617722242,2025-09-26 09h29.09.244076 +0700,
None,None,None,ศิริพร,men.png,ศิริพร,10,64,114,35,35,0,,,,k,1.2908006999641657,None,,,,,0,35,35,14,105.17676899989601,,,,,,,,,,,,,,,,,,,,,,,,,105.16658540000208,105.17676899989601,105.17676899989601,105.17676899989601,105.17676899989601,105.17676899989601,105.17676899989601,105.43838829989545,105.48772889992688,106.47163489996456,k,1.2908006999641657,None,,,test1,001,2025-09-26_09h29.00.636,Priming_gender,,2025.1.1,60.39978617722242,2025-09-26 09h29.09.244076 +0700,
None,None,None,None,women.png,กาญจนา,11,60,130,36,36,0,,,,j,1.6809921999229118,None,,,,,0,36,36,30,106.51375689997803,,,,,,,,,,,,,,,,,,,,,,,,,106.50061839993577,106.51375689997803,106.51375689997803,106.51375689997803,106.51375689997803,106.51375689997803,106.51375689997803,106.78806549997535,106.82167469989508,108.20659379998688,j,1.6809921999229118,None,,,test1,001,2025-09-26_09h29.00.636,Priming_gender,,2025.1.1,60.39978617722242,2025-09-26 09h29.09.244076 +0700,
None,None,None,None,women.png,ธนพล,11,52,122,37,37,0,,,,k,2.1716231999453157,None,,,,,0,37,37,22,108.24792589992285,,,,,,,,,,,,,,,,,,,,,,,,,108.23648709990084,108.24792589992285,108.24792589992285,108.24792589992285,108.24792589992285,108.24792589992285,108.24792589992285,108.52193549997173,108.55535469995812,110.42234789999202,k,2.1716231999453157,None,,,test1,001,2025-09-26_09h29.00.636,Priming_gender,,2025.1.1,60.39978617722242,2025-09-26 09h29.09.244076 +0700,
None,None,None,None,women.png,ศิริพร,11,64,134,38,38,0,,,,j,1.7008607001043856,None,,,,,0,38,38,34,110.46216709993314,,,,,,,,,,,,,,,,,,,,,,,,,110.45063699991442,110.46216709993314,110.46216709993314,110.46216709993314,110.46216709993314,110.46216709993314,110.46216709993314,110.7382374999579,110.7715386999771,112.1725033998955,j,1.7008607001043856,None,,,test1,001,2025-09-26_09h29.00.636,Priming_gender,,2025.1.1,60.39978617722242,2025-09-26 09h29.09.244076 +0700,
ชัยวัฒน์,ศิริพร,None,ชัยวัฒน์,men.png,ชัยวัฒน์,10,54,104,39,39,0,,,,k,1.7081806000787765,None,,,,,0,39,39,4,112.21437589998823,,,,,,,,,,,,,,,,,,,,,,,,,112.20310329995118,112.21437589998823,112.21437589998823,112.21437589998823,112.21437589998823,112.21437589998823,112.21437589998823,112.48803909996059,112.52100189996418,113.93785149999894,k,1.7081806000787765,None,,,test1,001,2025-09-26_09h29.00.636,Priming_gender,,2025.1.1,60.39978617722242,2025-09-26 09h29.09.244076 +0700,
None,None,None,อาภรณ์,men.png,อาภรณ์,10,65,115,40,0,1,,,,k,1.5926818000152707,None,,,,,1,0,40,15,113.97824460000265,,,,,,,,,,,,,,,,,,,,,,,,,113.96617259993218,113.97824460000265,113.97824460000265,113.97824460000265,113.97824460000265,113.97824460000265,113.97824460000265,114.23951669991948,114.2880901999306,115.57232209993526,k,1.5926818000152707,None,,,test1,001,2025-09-26_09h29.00.636,Priming_gender,,2025.1.1,60.39978617722242,2025-09-26 09h29.09.244076 +0700,
None,None,None,None,women.png,กฤษณะ,11,50,120,41,1,1,,,,j,1.157262499909848,None,,,,,1,1,41,20,115.61350819992367,,,,,,,,,,,,,,,,,,,,,,,,,115.60181469994131,115.61350819992367,115.61350819992367,115.61350819992367,115.61350819992367,115.61350819992367,115.61350819992367,115.87268939998467,115.92274670000188,116.78821729996707,j,1.157262499909848,None,,,test1,001,2025-09-26_09h29.00.636,Priming_gender,,2025.1.1,60.39978617722242,2025-09-26 09h29.09.244076 +0700,
None,None,None,สุนิสา,men.png,สุนิสา,10,68,118,42,2,1,,,,k,1.0608870999421924,None,,,,,1,2,42,18,116.82962879992556,,,,,,,,,,,,,,,,,,,,,,,,,116.8181731000077,116.82962879992556,116.82962879992556,116.82962879992556,116.82962879992556,116.82962879992556,116.82962879992556,117.08964179991744,117.1391430000076,117.90455279999878,k,1.0608870999421924,None,,,test1,001,2025-09-26_09h29.00.636,Priming_gender,,2025.1.1,60.39978617722242,2025-09-26 09h29.09.244076 +0700,
None,None,None,None,women.png,พิมพ์ใจ,11,61,131,43,3,1,,,,j,1.7539724999805912,None,,,,,1,3,43,31,117.94528909993824,,,,,,,,,,,,,,,,,,,,,,,,,117.93267049989663,117.94528909993824,117.94528909993824,117.94528909993824,117.94528909993824,117.94528909993824,117.94528909993824,118.20466099993791,118.2541522999527,119.70442279998679,j,1.7539724999805912,None,,,test1,001,2025-09-26_09h29.00.636,Priming_gender,,2025.1.1,60.39978617722242,2025-09-26 09h29.09.244076 +0700,
None,None,None,None,women.png,ศักดิ์สิทธิ์,11,58,128,44,4,1,,,,j,2.786799499997869,None,,,,,1,4,44,28,119.74422559991945,,,,,,,,,,,,,,,,,,,,,,,,,119.73266759992111,119.74422559991945,119.74422559991945,119.74422559991945,119.74422559991945,119.74422559991945,119.74422559991945,120.00557459995616,120.0539385000011,122.53769539995119,j,2.786799499997869,None,,,test1,001,2025-09-26_09h29.00.636,Priming_gender,,2025.1.1,60.39978617722242,2025-09-26 09h29.09.244076 +0700,
ชัยวัฒน์,ศิริพร,None,ชัยวัฒน์,men.png,ชัยวัฒน์,10,54,104,45,5,1,,,,k,1.4575881999917328,None,,,,,1,5,45,4,122.57789519999642,,,,,,,,,,,,,,,,,,,,,,,,,122.56671309995,122.57789519999642,122.57789519999642,122.57789519999642,122.57789519999642,122.57789519999642,122.57789519999642,122.8390377999749,122.88867879996542,124.03776169999037,k,1.4575881999917328,None,,,test1,001,2025-09-26_09h29.00.636,Priming_gender,,2025.1.1,60.39978617722242,2025-09-26 09h29.09.244076 +0700,
กฤษณะ,กาญจนา,men.png,กฤษณะ,men.png,กฤษณะ,10,50,100,46,6,1,,,,k,1.6375716999173164,None,,,,,1,6,46,0,124.0777976999525,,,,,,,,,,,,,,,,,,,,,,,,,124.06601629999932,124.0777976999525,124.0777976999525,124.0777976999525,124.0777976999525,124.0777976999525,124.0777976999525,124.33928779989947,124.38658039993607,125.72096899989992,k,1.6375716999173164,None,,,test1,001,2025-09-26_09h29.00.636,Priming_gender,,2025.1.1,60.39978617722242,2025-09-26 09h29.09.244076 +0700,
None,None,None,วาสนา,men.png,วาสนา,10,62,112,47,7,1,,,,k,1.0708158999914303,None,,,,,1,7,47,12,125.76419199991506,,,,,,,,,,,,,,,,,,,,,,,,,125.75169069995172,125.76419199991506,125.76419199991506,125.76419199991506,125.76419199991506,125.76419199991506,125.76419199991506,126.03664720000234,126.07101409998722,126.83731489989441,k,1.0708158999914303,None,,,test1,001,2025-09-26_09h29.00.636,Priming_gender,,2025.1.1,60.39978617722242,2025-09-26 09h29.09.244076 +0700,
None,None,None,None,women.png,อาภรณ์,11,65,135,48,8,1,,,,j,1.1578456999268383,None,,,,,1,8,48,35,126.8774923000019,,,,,,,,,,,,,,,,,,,,,,,,,126.86746290000156,126.8774923000019,126.8774923000019,126.8774923000019,126.8774923000019,126.8774923000019,126.8774923000019,127.15263409994077,127.18611879996024,128.03767509991303,j,1.1578456999268383,None,,,test1,001,2025-09-26_09h29.00.636,Priming_gender,,2025.1.1,60.39978617722242,2025-09-26 09h29.09.244076 +0700,
ภูมิพัฒน์,จิตติมา,None,ภูมิพัฒน์,men.png,ภูมิพัฒน์,10,56,106,49,9,1,,,,k,1.4098287000088021,None,,,,,1,9,49,6,128.08062829996925,,,,,,,,,,,,,,,,,,,,,,,,,128.0681502999505,128.08062829996925,128.08062829996925,128.08062829996925,128.08062829996925,128.08062829996925,128.08062829996925,128.35455639997963,128.38667769997846,129.5039964999305,k,1.4098287000088021,None,,,test1,001,2025-09-26_09h29.00.636,Priming_gender,,2025.1.1,60.39978617722242,2025-09-26 09h29.09.244076 +0700,
None,None,None,None,women.png,วาสนา,11,62,132,50,10,1,,,,j,1.8978352999547496,None,,,,,1,10,50,32,129.54507249989547,,,,,,,,,,,,,,,,,,,,,,,,,129.53285339998547,129.54507249989547,129.54507249989547,129.54507249989547,129.54507249989547,129.54507249989547,129.54507249989547,129.8031842999626,129.8533618999645,131.45369180000853,j,1.8978352999547496,None,,,test1,001,2025-09-26_09h29.00.636,Priming_gender,,2025.1.1,60.39978617722242,2025-09-26 09h29.09.244076 +0700,
None,None,None,ปัทมา,men.png,ปัทมา,10,69,119,51,11,1,,,,k,2.0764143000124022,None,,,,,1,11,51,19,131.4946080999216,,,,,,,,,,,,,,,,,,,,,,,,,131.48207629995886,131.4946080999216,131.4946080999216,131.4946080999216,131.4946080999216,131.4946080999216,131.4946080999216,131.770156799932,131.8035258000018,133.58746640000027,k,2.0764143000124022,None,,,test1,001,2025-09-26_09h29.00.636,Priming_gender,,2025.1.1,60.39978617722242,2025-09-26 09h29.09.244076 +0700,
None,None,None,พิมพ์ใจ,men.png,พิมพ์ใจ,10,61,111,52,12,1,,,,k,1.7198551000328735,None,,,,,1,12,52,11,133.62696729996242,,,,,,,,,,,,,,,,,,,,,,,,,133.61577779997606,133.62696729996242,133.62696729996242,133.62696729996242,133.62696729996242,133.62696729996242,133.62696729996242,133.88614029996097,133.93639309995342,135.3531613999512,k,1.7198551000328735,None,,,test1,001,2025-09-26_09h29.00.636,Priming_gender,,2025.1.1,60.39978617722242,2025-09-26 09h29.09.244076 +0700,
None,None,None,None,women.png,นเรศ,11,51,121,53,13,1,,,,j,1.8590602999320254,None,,,,,1,13,53,21,135.39236369996797,,,,,,,,,,,,,,,,,,,,,,,,,135.38110439991578,135.39236369996797,135.39236369996797,135.39236369996797,135.39236369996797,135.39236369996797,135.39236369996797,135.65545869991183,135.70349799992982,137.2538562999107,j,1.8590602999320254,None,,,test1,001,2025-09-26_09h29.00.636,Priming_gender,,2025.1.1,60.39978617722242,2025-09-26 09h29.09.244076 +0700,
อรรถพล,สุพัตรา,None,อรรถพล,men.png,อรรถพล,10,53,103,54,14,1,,,,k,1.9553123000077903,None,,,,,1,14,54,3,137.29555169993546,,,,,,,,,,,,,,,,,,,,,,,,,137.28281439992134,137.29555169993546,137.29555169993546,137.29555169993546,137.29555169993546,137.29555169993546,137.29555169993546,137.56907229998615,137.6030837999424,139.25299670000095,k,1.9553123000077903,None,,,test1,001,2025-09-26_09h29.00.636,Priming_gender,,2025.1.1,60.39978617722242,2025-09-26 09h29.09.244076 +0700,
None,None,None,None,women.png,วรพล,11,57,127,55,15,1,,,,j,1.3006160999648273,None,,,,,1,15,55,27,139.29445879999548,,,,,,,,,,,,,,,,,,,,,,,,,139.28194809996057,139.29445879999548,139.29445879999548,139.29445879999548,139.29445879999548,139.29445879999548,139.29445879999548,139.55407650000416,139.60458839999046,140.60302239994053,j,1.3006160999648273,None,,,test1,001,2025-09-26_09h29.00.636,Priming_gender,,2025.1.1,60.39978617722242,2025-09-26 09h29.09.244076 +0700,
None,None,None,ศิริพร,men.png,ศิริพร,10,64,114,56,16,1,,,,k,1.6944453000323847,None,,,,,1,16,56,14,140.64403799991123,,,,,,,,,,,,,,,,,,,,,,,,,140.6323736999184,140.64403799991123,140.64403799991123,140.64403799991123,140.64403799991123,140.64403799991123,140.64403799991123,140.90296400000807,140.9531197999604,142.35303499992006,k,1.6944453000323847,None,,,test1,001,2025-09-26_09h29.00.636,Priming_gender,,2025.1.1,60.39978617722242,2025-09-26 09h29.09.244076 +0700,
None,None,None,None,women.png,จิตติมา,11,66,136,57,17,1,,,,j,0.8408414999721572,None,,,,,1,17,57,36,142.39434369991068,,,,,,,,,,,,,,,,,,,,,,,,,142.38170889997855,142.39434369991068,142.39434369991068,142.39434369991068,142.39434369991068,142.39434369991068,142.39434369991068,142.6532678999938,142.70292799989693,143.23668819991872,j,0.8408414999721572,None,,,test1,001,2025-09-26_09h29.00.636,Priming_gender,,2025.1.1,60.39978617722242,2025-09-26 09h29.09.244076 +0700,
None,None,None,จิตติมา,men.png,จิตติมา,10,66,116,58,18,1,,,,k,0.9509294000454247,None,,,,,1,18,58,16,143.27556849992834,,,,,,,,,,,,,,,,,,,,,,,,,143.2646650999086,143.27556849992834,143.27556849992834,143.27556849992834,143.27556849992834,143.27556849992834,143.27556849992834,143.53617109998595,143.5875627999194,144.2358864999842,k,0.9509294000454247,None,,,test1,001,2025-09-26_09h29.00.636,Priming_gender,,2025.1.1,60.39978617722242,2025-09-26 09h29.09.244076 +0700,
None,None,None,None,women.png,ปริญญา,11,55,125,59,19,1,,,,j,0.830924200010486,None,,,,,1,19,59,25,144.27565849991515,,,,,,,,,,,,,,,,,,,,,,,,,144.26424950000364,144.27565849991515,144.27565849991515,144.27565849991515,144.27565849991515,144.27565849991515,144.27565849991515,144.5361036999384,144.5861009999644,145.1198005999904,j,0.830924200010486,None,,,test1,001,2025-09-26_09h29.00.636,Priming_gender,,2025.1.1,60.39978617722242,2025-09-26 09h29.09.244076 +0700,
None,None,None,None,women.png,สุนิสา,11,68,138,60,20,1,,,,j,0.7477893000468612,None,,,,,1,20,60,38,145.15838919999078,,,,,,,,,,,,,,,,,,,,,,,,,145.14786739996634,145.15838919999078,145.15838919999078,145.15838919999078,145.15838919999078,145.15838919999078,145.15838919999078,145.4211723000044,145.46906859998126,145.91931369993836,j,0.7477893000468612,None,,,test1,001,2025-09-26_09h29.00.636,Priming_gender,,2025.1.1,60.39978617722242,2025-09-26 09h29.09.244076 +0700,
None,None,None,None,women.png,สุพัตรา,11,63,133,61,21,1,,,,j,0.779189300024882,None,,,,,1,21,61,33,145.95910529990215,,,,,,,,,,,,,,,,,,,,,,,,,145.9484833999304,145.95910529990215,145.95910529990215,145.95910529990215,145.95910529990215,145.95910529990215,145.95910529990215,146.2200021999888,146.27074349997565,146.75359049998224,j,0.779189300024882,None,,,test1,001,2025-09-26_09h29.00.636,Priming_gender,,2025.1.1,60.39978617722242,2025-09-26 09h29.09.244076 +0700,
None,None,None,กาญจนา,men.png,กาญจนา,10,60,110,62,22,1,,,,k,0.8729194001061842,None,,,,,1,22,62,10,146.79429579991847,,,,,,,,,,,,,,,,,,,,,,,,,146.78267489990685,146.79429579991847,146.79429579991847,146.79429579991847,146.79429579991847,146.79429579991847,146.79429579991847,147.06911889999174,147.102893400006,147.67020639998373,k,0.8729194001061842,None,,,test1,001,2025-09-26_09h29.00.636,Priming_gender,,2025.1.1,60.39978617722242,2025-09-26 09h29.09.244076 +0700,
None,None,None,None,women.png,กาญจนา,11,60,130,63,23,1,,,,j,1.093107599997893,None,,,,,1,23,63,30,147.70983499998692,,,,,,,,,,,,,,,,,,,,,,,,,147.69846079999115,147.70983499998692,147.70983499998692,147.70983499998692,147.70983499998692,147.70983499998692,147.70983499998692,147.9859257999342,148.0192240999313,148.81910299998708,j,1.093107599997893,None,,,test1,001,2025-09-26_09h29.00.636,Priming_gender,,2025.1.1,60.39978617722242,2025-09-26 09h29.09.244076 +0700,
None,None,None,None,women.png,ชัยวัฒน์,11,54,124,64,24,1,,,,k,1.0140605999622494,None,,,,,1,24,64,24,148.8605130999349,,,,,,,,,,,,,,,,,,,,,,,,,148.8482740999898,148.8605130999349,148.8605130999349,148.8605130999349,148.8605130999349,148.8605130999349,148.8605130999349,149.1204613998998,149.16929629992228,149.88532269990537,k,1.0140605999622494,None,,,test1,001,2025-09-26_09h29.00.636,Priming_gender,,2025.1.1,60.39978617722242,2025-09-26 09h29.09.244076 +0700,
None,None,None,วรรณา,men.png,วรรณา,10,67,117,65,25,1,,,,k,1.4993261999916285,None,,,,,1,25,65,17,149.9276287999237,,,,,,,,,,,,,,,,,,,,,,,,,149.91467029997148,149.9276287999237,149.9276287999237,149.9276287999237,149.9276287999237,149.9276287999237,149.9276287999237,150.18794709991198,150.23563609994017,151.43542619992513,k,1.4993261999916285,None,,,test1,001,2025-09-26_09h29.00.636,Priming_gender,,2025.1.1,60.39978617722242,2025-09-26 09h29.09.244076 +0700,
นเรศ,พิมพ์ใจ,women.png,นเรศ,men.png,นเรศ,10,51,101,66,26,1,,,,k,0.7511893000919372,None,,,,,1,26,66,1,151.4752377999248,,,,,,,,,,,,,,,,,,,,,,,,,151.46371209993958,151.4752377999248,151.4752377999248,151.4752377999248,151.4752377999248,151.4752377999248,151.4752377999248,151.7363350999076,151.78510380000807,152.2359174999874,k,0.7511893000919372,None,,,test1,001,2025-09-26_09h29.00.636,Priming_gender,,2025.1.1,60.39978617722242,2025-09-26 09h29.09.244076 +0700,
None,None,None,None,women.png,พิสิฐ,11,59,129,67,27,1,,,,j,1.4072170000290498,None,,,,,1,27,67,29,152.27619149989914,,,,,,,,,,,,,,,,,,,,,,,,,152.2654355999548,152.27619149989914,152.27619149989914,152.27619149989914,152.27619149989914,152.27619149989914,152.27619149989914,152.53746269992553,152.58554829994682,153.68705670000054,j,1.4072170000290498,None,,,test1,001,2025-09-26_09h29.00.636,Priming_gender,,2025.1.1,60.39978617722242,2025-09-26 09h29.09.244076 +0700,
None,None,None,สุพัตรา,men.png,สุพัตรา,10,63,113,68,28,1,,,,k,1.8272137999301776,None,,,,,1,28,68,13,153.7271960999351,,,,,,,,,,,,,,,,,,,,,,,,,153.71532739989925,153.7271960999351,153.7271960999351,153.7271960999351,153.7271960999351,153.7271960999351,153.7271960999351,154.00241640000604,154.03474039991852,155.56902359996457,k,1.8272137999301776,None,,,test1,001,2025-09-26_09h29.00.636,Priming_gender,,2025.1.1,60.39978617722242,2025-09-26 09h29.09.244076 +0700,
ปริญญา,อาภรณ์,None,ปริญญา,men.png,ปริญญา,10,55,105,69,29,1,,,,k,0.8904840999748558,None,,,,,1,29,69,5,155.60867759992834,,,,,,,,,,,,,,,,,,,,,,,,,155.5970376000041,155.60867759992834,155.60867759992834,155.60867759992834,155.60867759992834,155.60867759992834,155.60867759992834,155.88553460000549,155.9185016999254,156.5020759999752,k,0.8904840999748558,None,,,test1,001,2025-09-26_09h29.00.636,Priming_gender,,2025.1.1,60.39978617722242,2025-09-26 09h29.09.244076 +0700,
ธนพล,วาสนา,None,ธนพล,men.png,ธนพล,10,52,102,70,30,1,,,,k,0.8835241999477148,None,,,,,1,30,70,2,156.54349670000374,,,,,,,,,,,,,,,,,,,,,,,,,156.53158329997677,156.54349670000374,156.54349670000374,156.54349670000374,156.54349670000374,156.54349670000374,156.54349670000374,156.80157399992459,156.85157419997267,157.43503389996476,k,0.8835241999477148,None,,,test1,001,2025-09-26_09h29.00.636,Priming_gender,,2025.1.1,60.39978617722242,2025-09-26 09h29.09.244076 +0700,
พิสิฐ,ปัทมา,None,พิสิฐ,men.png,พิสิฐ,10,59,109,71,31,1,,,,k,1.4250097000040114,None,,,,,1,31,71,9,157.47396289999597,,,,,,,,,,,,,,,,,,,,,,,,,157.4626364998985,157.47396289999597,157.47396289999597,157.47396289999597,157.47396289999597,157.47396289999597,157.47396289999597,157.7359068999067,157.78541169990785,158.90253049996682,k,1.4250097000040114,None,,,test1,001,2025-09-26_09h29.00.636,Priming_gender,,2025.1.1,60.39978617722242,2025-09-26 09h29.09.244076 +0700,
None,None,None,None,women.png,ภูมิพัฒน์,11,56,126,72,32,1,,,,j,1.683371699997224,None,,,,,1,32,72,26,158.9438436999917,,,,,,,,,,,,,,,,,,,,,,,,,158.9319419999374,158.9438436999917,158.9438436999917,158.9438436999917,158.9438436999917,158.9438436999917,158.9438436999917,159.20219879993238,159.25197789992671,160.63510189997032,j,1.683371699997224,None,,,test1,001,2025-09-26_09h29.00.636,Priming_gender,,2025.1.1,60.39978617722242,2025-09-26 09h29.09.244076 +0700,
None,None,None,None,women.png,ศิริพร,11,64,134,73,33,1,,,,j,1.9512023999122903,None,,,,,1,33,73,34,160.6758362998953,,,,,,,,,,,,,,,,,,,,,,,,,160.66400689992588,160.6758362998953,160.6758362998953,160.6758362998953,160.6758362998953,160.6758362998953,160.6758362998953,160.93644779990427,160.9854791999096,162.63540939998347,j,1.9512023999122903,None,,,test1,001,2025-09-26_09h29.00.636,Priming_gender,,2025.1.1,60.39978617722242,2025-09-26 09h29.09.244076 +0700,
None,None,None,None,women.png,อรรถพล,11,53,123,74,34,1,,,,j,1.4547432999825105,None,,,,,1,34,74,23,162.67660169990268,,,,,,,,,,,,,,,,,,,,,,,,,162.66496759990696,162.67660169990268,162.67660169990268,162.67660169990268,162.67660169990268,162.67660169990268,162.67660169990268,162.93534179998096,162.98510319995694,164.1352615999058,j,1.4547432999825105,None,,,test1,001,2025-09-26_09h29.00.636,Priming_gender,,2025.1.1,60.39978617722242,2025-09-26 09h29.09.244076 +0700,
None,None,None,None,women.png,ธนพล,11,52,122,75,35,1,,,,j,1.3620918999658898,None,,,,,1,35,75,22,164.17676579998806,,,,,,,,,,,,,,,,,,,,,,,,,164.16439739998896,164.17676579998806,164.17676579998806,164.17676579998806,164.17676579998806,164.17676579998806,164.17676579998806,164.45236110000405,164.48484079993796,165.5521948999958,j,1.3620918999658898,None,,,test1,001,2025-09-26_09h29.00.636,Priming_gender,,2025.1.1,60.39978617722242,2025-09-26 09h29.09.244076 +0700,
ศักดิ์สิทธิ์,สุนิสา,None,ศักดิ์สิทธิ์,men.png,ศักดิ์สิทธิ์,10,58,108,76,36,1,,,,k,1.9129448999883607,None,,,,,1,36,76,8,165.59384089999367,,,,,,,,,,,,,,,,,,,,,,,,,165.58104669989552,165.59384089999367,165.59384089999367,165.59384089999367,165.59384089999367,165.59384089999367,165.59384089999367,165.86942689993884,165.90316679992247,167.51860640000086,k,1.9129448999883607,None,,,test1,001,2025-09-26_09h29.00.636,Priming_gender,,2025.1.1,60.39978617722242,2025-09-26 09h29.09.244076 +0700,
None,None,None,None,women.png,วรรณา,11,67,137,77,37,1,,,,j,2.780879900092259,None,,,,,1,37,77,37,167.55824399995618,,,,,,,,,,,,,,,,,,,,,,,,,167.54625049990136,167.55824399995618,167.55824399995618,167.55824399995618,167.55824399995618,167.55824399995618,167.55824399995618,167.83635829994455,167.86954699992202,170.35170419991482,j,2.780879900092259,None,,,test1,001,2025-09-26_09h29.00.636,Priming_gender,,2025.1.1,60.39978617722242,2025-09-26 09h29.09.244076 +0700,
วรพล,วรรณา,None,วรพล,men.png,วรพล,10,57,107,78,38,1,,,,k,1.163597600068897,None,,,,,1,38,78,7,170.3907511999132,,,,,,,,,,,,,,,,,,,,,,,,,170.37936749996152,170.3907511999132,170.3907511999132,170.3907511999132,170.3907511999132,170.3907511999132,170.3907511999132,170.66809089994058,170.70099349995144,171.56844689999707,k,1.163597600068897,None,,,test1,001,2025-09-26_09h29.00.636,Priming_gender,,2025.1.1,60.39978617722242,2025-09-26 09h29.09.244076 +0700,
None,None,None,None,women.png,ปัทมา,11,69,139,79,39,1,,,,j,1.083863899926655,None,,,,,1,39,79,39,171.6072981999023,,,,,,,,,,,,,,,,,,,,,,,,,171.59628589998465,171.6072981999023,171.6072981999023,171.6072981999023,171.6072981999023,171.6072981999023,171.6072981999023,171.88396209990606,171.91712519992143,172.70113389997277,j,1.083863899926655,None,,,test1,001,2025-09-26_09h29.00.636,Priming_gender,,2025.1.1,60.39978617722242,2025-09-26 09h29.09.244076 +0700,
ปริญญา,อาภรณ์,None,ปริญญา,men.png,ปริญญา,10,55,105,80,0,2,,,,k,1.3893418000079691,None,,,,,2,0,80,5,172.74167759995908,,,,,,,,,,,,,,,,,,,,,,,,,172.7302772999974,172.74167759995908,172.74167759995908,172.74167759995908,172.74167759995908,172.74167759995908,172.74167759995908,173.00080679997336,173.05048079998232,174.13482089992613,k,1.3893418000079691,None,,,test1,001,2025-09-26_09h29.00.636,Priming_gender,,2025.1.1,60.39978617722242,2025-09-26 09h29.09.244076 +0700,
None,None,None,สุพัตรา,men.png,สุพัตรา,10,63,113,81,1,2,,,,k,1.394771899911575,None,,,,,2,1,81,13,174.17555649997666,,,,,,,,,,,,,,,,,,,,,,,,,174.1634024999803,174.17555649997666,174.17555649997666,174.17555649997666,174.17555649997666,174.17555649997666,174.17555649997666,174.43537590000778,174.4850196999032,175.5839915999677,k,1.394771899911575,None,,,test1,001,2025-09-26_09h29.00.636,Priming_gender,,2025.1.1,60.39978617722242,2025-09-26 09h29.09.244076 +0700,
None,None,None,None,women.png,วรพล,11,57,127,82,2,2,,,,j,1.773113499977626,None,,,,,2,2,82,27,175.62228689994663,,,,,,,,,,,,,,,,,,,,,,,,,175.6117647999199,175.62228689994663,175.62228689994663,175.62228689994663,175.62228689994663,175.62228689994663,175.62228689994663,175.884378299932,175.93377179990057,177.4006640999578,j,1.773113499977626,None,,,test1,001,2025-09-26_09h29.00.636,Priming_gender,,2025.1.1,60.39978617722242,2025-09-26 09h29.09.244076 +0700,
ธนพล,วาสนา,None,ธนพล,men.png,ธนพล,10,52,102,83,3,2,,,,j,2.6104242999572307,None,,,,,2,3,83,2,177.44029959989712,,,,,,,,,,,,,,,,,,,,,,,,,177.4282502999995,177.44029959989712,177.44029959989712,177.44029959989712,177.44029959989712,177.44029959989712,177.44029959989712,177.7006807998987,177.75015949993394,180.06708219996653,j,2.6104242999572307,None,,,test1,001,2025-09-26_09h29.00.636,Priming_gender,,2025.1.1,60.39978617722242,2025-09-26 09h29.09.244076 +0700,
None,None,None,None,women.png,สุนิสา,11,68,138,84,4,2,,,,j,1.4793810999253765,None,,,,,2,4,84,38,180.10692920000292,,,,,,,,,,,,,,,,,,,,,,,,,180.09559049992822,180.10692920000292,180.10692920000292,180.10692920000292,180.10692920000292,180.10692920000292,180.10692920000292,180.36641279992182,180.41745869989973,181.60081609990448,j,1.4793810999253765,None,,,test1,001,2025-09-26_09h29.00.636,Priming_gender,,2025.1.1,60.39978617722242,2025-09-26 09h29.09.244076 +0700,
None,None,None,None,women.png,ชัยวัฒน์,11,54,124,85,5,2,,,,j,1.0504753000568599,None,,,,,2,5,85,24,181.6403805000009,,,,,,,,,,,,,,,,,,,,,,,,,181.62875999999233,181.6403805000009,181.6403805000009,181.6403805000009,181.6403805000009,181.6403805000009,181.6403805000009,181.90166390000377,181.9518525999738,182.70063279999886,j,1.0504753000568599,None,,,test1,001,2025-09-26_09h29.00.636,Priming_gender,,2025.1.1,60.39978617722242,2025-09-26 09h29.09.244076 +0700,
ชัยวัฒน์,ศิริพร,None,ชัยวัฒน์,men.png,ชัยวัฒน์,10,54,104,86,6,2,,,,k,1.6594531999435276,None,,,,,2,6,86,4,182.7435716999462,,,,,,,,,,,,,,,,,,,,,,,,,182.73181059991475,182.7435716999462,182.7435716999462,182.7435716999462,182.7435716999462,182.7435716999462,182.7435716999462,183.00029299990274,183.05037909990642,184.4168833999429,k,1.6594531999435276,None,,,test1,001,2025-09-26_09h29.00.636,Priming_gender,,2025.1.1,60.39978617722242,2025-09-26 09h29.09.244076 +0700,
None,None,None,จิตติมา,men.png,จิตติมา,10,66,116,87,7,2,,,,j,1.2730754000367597,None,,,,,2,7,87,16,184.4580381999258,,,,,,,,,,,,,,,,,,,,,,,,,184.44681999995373,184.4580381999258,184.4580381999258,184.4580381999258,184.4580381999258,184.4580381999258,184.4580381999258,184.71659049997106,184.76737729995511,185.73390519991517,j,1.2730754000367597,None,,,test1,001,2025-09-26_09h29.00.636,Priming_gender,,2025.1.1,60.39978617722242,2025-09-26 09h29.09.244076 +0700,
อรรถพล,สุพัตรา,None,อรรถพล,men.png,อรรถพล,10,53,103,88,8,2,,,,k,0.9884667999576777,None,,,,,2,8,88,3,185.7819355999818,,,,,,,,,,,,,,,,,,,,,,,,,185.7677410999313,185.7819355999818,185.7819355999818,185.7819355999818,185.7819355999818,185.7819355999818,185.7819355999818,186.03381779999472,186.0835814999882,186.7852477999404,k,0.9884667999576777,None,,,test1,001,2025-09-26_09h29.00.636,Priming_gender,,2025.1.1,60.39978617722242,2025-09-26 09h29.09.244076 +0700,
None,None,None,None,women.png,ปริญญา,11,55,125,89,9,2,,,,j,1.350671699969098,None,,,,,2,9,89,25,186.82774969993625,,,,,,,,,,,,,,,,,,,,,,,,,186.81487030000426,186.82774969993625,186.82774969993625,186.82774969993625,186.82774969993625,186.82774969993625,186.82774969993625,187.0844714998966,187.13387419993524,188.18532709998544,j,1.350671699969098,None,,,test1,001,2025-09-26_09h29.00.636,Priming_gender,,2025.1.1,60.39978617722242,2025-09-26 09h29.09.244076 +0700,
None,None,None,None,women.png,ธนพล,11,52,122,90,10,2,,,,j,0.9748781999805942,None,,,,,2,10,90,22,188.2274281999562,,,,,,,,,,,,,,,,,,,,,,,,,188.21479749993887,188.2274281999562,188.2274281999562,188.2274281999562,188.2274281999562,188.2274281999562,188.2274281999562,188.49923859990668,188.53300379996654,189.21654139994644,j,0.9748781999805942,None,,,test1,001,2025-09-26_09h29.00.636,Priming_gender,,2025.1.1,60.39978617722242,2025-09-26 09h29.09.244076 +0700,
None,None,None,ศิริพร,men.png,ศิริพร,10,64,114,91,11,2,,,,k,1.2265053000301123,None,,,,,2,11,91,14,189.25638159993105,,,,,,,,,,,,,,,,,,,,,,,,,189.24530379998032,189.25638159993105,189.25638159993105,189.25638159993105,189.25638159993105,189.25638159993105,189.25638159993105,189.5164701999165,189.5675624998985,190.4840525999898,k,1.2265053000301123,None,,,test1,001,2025-09-26_09h29.00.636,Priming_gender,,2025.1.1,60.39978617722242,2025-09-26 09h29.09.244076 +0700,
None,None,None,None,women.png,กฤษณะ,11,50,120,92,12,2,,,,j,1.2858926000772044,None,,,,,2,12,92,20,190.52492549992166,,,,,,,,,,,,,,,,,,,,,,,,,190.51319999992847,190.52492549992166,190.52492549992166,190.52492549992166,190.52492549992166,190.52492549992166,190.52492549992166,190.784415800008,190.8344743999187,191.81690829992294,j,1.2858926000772044,None,,,test1,001,2025-09-26_09h29.00.636,Priming_gender,,2025.1.1,60.39978617722242,2025-09-26 09h29.09.244076 +0700,
None,None,None,พิมพ์ใจ,men.png,พิมพ์ใจ,10,61,111,93,13,2,,,,k,0.961038599954918,None,,,,,2,13,93,11,191.85752809990663,,,,,,,,,,,,,,,,,,,,,,,,,191.84552400000393,191.85752809990663,191.85752809990663,191.85752809990663,191.85752809990663,191.85752809990663,191.85752809990663,192.13280969997868,192.16678470000625,192.83324969990645,k,0.961038599954918,None,,,test1,001,2025-09-26_09h29.00.636,Priming_gender,,2025.1.1,60.39978617722242,2025-09-26 09h29.09.244076 +0700,
None,None,None,ปัทมา,men.png,ปัทมา,10,69,119,94,14,2,,,,k,2.0413013000506908,None,,,,,2,14,94,19,192.87330439989455,,,,,,,,,,,,,,,,,,,,,,,,,192.86178169993218,192.87330439989455,192.87330439989455,192.87330439989455,192.87330439989455,192.87330439989455,192.87330439989455,193.1331671999069,193.18303089996334,194.91619169991463,k,2.0413013000506908,None,,,test1,001,2025-09-26_09h29.00.636,Priming_gender,,2025.1.1,60.39978617722242,2025-09-26 09h29.09.244076 +0700,
None,None,None,None,women.png,พิสิฐ,11,59,129,95,15,2,,,,j,1.012629900011234,None,,,,,2,15,95,29,194.95770749996882,,,,,,,,,,,,,,,,,,,,,,,,,194.94554049998987,194.95770749996882,194.95770749996882,194.95770749996882,194.95770749996882,194.95770749996882,194.95770749996882,195.21753899997566,195.2665472999215,195.98413060000166,j,1.012629900011234,None,,,test1,001,2025-09-26_09h29.00.636,Priming_gender,,2025.1.1,60.39978617722242,2025-09-26 09h29.09.244076 +0700,
None,None,None,กาญจนา,men.png,กาญจนา,10,60,110,96,16,2,,,,k,1.2412840001052245,None,,,,,2,16,96,10,196.0253659998998,,,,,,,,,,,,,,,,,,,,,,,,,196.01324719993863,196.0253659998998,196.0253659998998,196.0253659998998,196.0253659998998,196.0253659998998,196.0253659998998,196.2988178000087,196.33246969990432,197.28271329996642,k,1.2412840001052245,None,,,test1,001,2025-09-26_09h29.00.636,Priming_gender,,2025.1.1,60.39978617722242,2025-09-26 09h29.09.244076 +0700,
None,None,None,None,women.png,อาภรณ์,11,65,135,97,17,2,,,,j,1.8790791000938043,None,,,,,2,17,97,35,197.32320939993951,,,,,,,,,,,,,,,,,,,,,,,,,197.3116052999394,197.32320939993951,197.32320939993951,197.32320939993951,197.32320939993951,197.32320939993951,197.32320939993951,197.58310489996802,197.63285999989603,199.21592049999163,j,1.8790791000938043,None,,,test1,001,2025-09-26_09h29.00.636,Priming_gender,,2025.1.1,60.39978617722242,2025-09-26 09h29.09.244076 +0700,
ศักดิ์สิทธิ์,สุนิสา,None,ศักดิ์สิทธิ์,men.png,ศักดิ์สิทธิ์,10,58,108,98,18,2,,,,k,1.0018467000918463,None,,,,,2,18,98,8,199.25708769995254,,,,,,,,,,,,,,,,,,,,,,,,,199.24618579994421,199.25708769995254,199.25708769995254,199.25708769995254,199.25708769995254,199.25708769995254,199.25708769995254,199.51688509993255,199.56696389999706,200.26542919990607,k,1.0018467000918463,None,,,test1,001,2025-09-26_09h29.00.636,Priming_gender,,2025.1.1,60.39978617722242,2025-09-26 09h29.09.244076 +0700,
None,None,None,None,women.png,ภูมิพัฒน์,11,56,126,99,19,2,,,,j,1.8883813000284135,None,,,,,2,19,99,26,200.30647650000174,,,,,,,,,,,,,,,,,,,,,,,,,200.29426899994723,200.30647650000174,200.30647650000174,200.30647650000174,200.30647650000174,200.30647650000174,200.30647650000174,200.56625819997862,200.61611409997568,202.19960179994814,j,1.8883813000284135,None,,,test1,001,2025-09-26_09h29.00.636,Priming_gender,,2025.1.1,60.39978617722242,2025-09-26 09h29.09.244076 +0700,
None,None,None,None,women.png,ปัทมา,11,69,139,100,20,2,,,,j,1.1713529999833554,None,,,,,2,20,100,39,202.23996749997605,,,,,,,,,,,,,,,,,,,,,,,,,202.22863479994703,202.23996749997605,202.23996749997605,202.23996749997605,202.23996749997605,202.23996749997605,202.23996749997605,202.51720389991533,202.5489742999198,203.41572940000333,j,1.1713529999833554,None,,,test1,001,2025-09-26_09h29.00.636,Priming_gender,,2025.1.1,60.39978617722242,2025-09-26 09h29.09.244076 +0700,
None,None,None,None,women.png,นเรศ,11,51,121,101,21,2,,,,j,1.5845908999908715,None,,,,,2,21,101,21,203.45834729995113,,,,,,,,,,,,,,,,,,,,,,,,,203.44591759995092,203.45834729995113,203.45834729995113,203.45834729995113,203.45834729995113,203.45834729995113,203.45834729995113,203.71617109992076,203.76561519992538,205.04938909993507,j,1.5845908999908715,None,,,test1,001,2025-09-26_09h29.00.636,Priming_gender,,2025.1.1,60.39978617722242,2025-09-26 09h29.09.244076 +0700,
None,None,None,อาภรณ์,men.png,อาภรณ์,10,65,115,102,22,2,,,,k,1.2979423000942916,None,,,,,2,22,102,15,205.08897559996694,,,,,,,,,,,,,,,,,,,,,,,,,205.07780949992593,205.08897559996694,205.08897559996694,205.08897559996694,205.08897559996694,205.08897559996694,205.08897559996694,205.35005469992757,205.39894240000285,206.39919539995026,k,1.2979423000942916,None,,,test1,001,2025-09-26_09h29.00.636,Priming_gender,,2025.1.1,60.39978617722242,2025-09-26 09h29.09.244076 +0700,
None,None,None,None,women.png,พิมพ์ใจ,11,61,131,103,23,2,,,,j,1.0204065999714658,None,,,,,2,23,103,31,206.43816919997334,,,,,,,,,,,,,,,,,,,,,,,,,206.42659139994066,206.43816919997334,206.43816919997334,206.43816919997334,206.43816919997334,206.43816919997334,206.43816919997334,206.69984129990917,206.74930109991692,207.46549039997626,j,1.0204065999714658,None,,,test1,001,2025-09-26_09h29.00.636,Priming_gender,,2025.1.1,60.39978617722242,2025-09-26 09h29.09.244076 +0700,
None,None,None,None,women.png,อรรถพล,11,53,123,104,24,2,,,,k,1.059352699900046,None,,,,,2,24,104,23,207.50479899998754,,,,,,,,,,,,,,,,,,,,,,,,,207.49259639997035,207.50479899998754,207.50479899998754,207.50479899998754,207.50479899998754,207.50479899998754,207.50479899998754,207.76575829996727,207.81650309998076,208.56582009990234,k,1.059352699900046,None,,,test1,001,2025-09-26_09h29.00.636,Priming_gender,,2025.1.1,60.39978617722242,2025-09-26 09h29.09.244076 +0700,
ภูมิพัฒน์,จิตติมา,None,ภูมิพัฒน์,men.png,ภูมิพัฒน์,10,56,106,105,25,2,,,,k,0.949249199940823,None,,,,,2,25,105,6,208.60561019997112,,,,,,,,,,,,,,,,,,,,,,,,,208.5947043999331,208.60561019997112,208.60561019997112,208.60561019997112,208.60561019997112,208.60561019997112,208.60561019997112,208.8821441999171,208.9168146000011,209.5648561998969,k,0.949249199940823,None,,,test1,001,2025-09-26_09h29.00.636,Priming_gender,,2025.1.1,60.39978617722242,2025-09-26 09h29.09.244076 +0700,
None,None,None,None,women.png,วรรณา,11,67,137,106,26,2,,,,j,0.9116073999321088,None,,,,,2,26,106,37,209.60291779995896,,,,,,,,,,,,,,,,,,,,,,,,,209.59225289989263,209.60291779995896,209.60291779995896,209.60291779995896,209.60291779995896,209.60291779995896,209.60291779995896,209.86449549999088,209.91541369992774,210.51601389993448,j,0.9116073999321088,None,,,test1,001,2025-09-26_09h29.00.636,Priming_gender,,2025.1.1,60.39978617722242,2025-09-26 09h29.09.244076 +0700,
วรพล,วรรณา,None,วรพล,men.png,วรพล,10,57,107,107,27,2,,,,k,0.9666632000589743,None,,,,,2,27,107,7,210.55591259989887,,,,,,,,,,,,,,,,,,,,,,,,,210.54538669995964,210.55591259989887,210.55591259989887,210.55591259989887,210.55591259989887,210.55591259989887,210.55591259989887,210.81486299994867,210.86463369999547,211.53205119993072,k,0.9666632000589743,None,,,test1,001,2025-09-26_09h29.00.636,Priming_gender,,2025.1.1,60.39978617722242,2025-09-26 09h29.09.244076 +0700,
None,None,None,สุนิสา,men.png,สุนิสา,10,68,118,108,28,2,,,,k,1.5992599000455812,None,,,,,2,28,108,18,211.57142639998347,,,,,,,,,,,,,,,,,,,,,,,,,211.56075189996045,211.57142639998347,211.57142639998347,211.57142639998347,211.57142639998347,211.57142639998347,211.57142639998347,211.83203009993304,211.88181699998677,213.18165239994414,k,1.5992599000455812,None,,,test1,001,2025-09-26_09h29.00.636,Priming_gender,,2025.1.1,60.39978617722242,2025-09-26 09h29.09.244076 +0700,
พิสิฐ,ปัทมา,None,พิสิฐ,men.png,พิสิฐ,10,59,109,109,29,2,,,,k,1.3876164999091998,None,,,,,2,29,109,9,213.22375749994535,,,,,,,,,,,,,,,,,,,,,,,,,213.2118212999776,213.22375749994535,213.22375749994535,213.22375749994535,213.22375749994535,213.22375749994535,213.22375749994535,213.48198859998956,213.53177399991546,214.61559309996665,k,1.3876164999091998,None,,,test1,001,2025-09-26_09h29.00.636,Priming_gender,,2025.1.1,60.39978617722242,2025-09-26 09h29.09.244076 +0700,
None,None,None,None,women.png,สุพัตรา,11,63,133,110,30,2,,,,j,1.091720899916254,None,,,,,2,30,110,33,214.6555878999643,,,,,,,,,,,,,,,,,,,,,,,,,214.64406489999965,214.6555878999643,214.6555878999643,214.6555878999643,214.6555878999643,214.6555878999643,214.6555878999643,214.93255329993553,214.9651207999559,215.7486284999177,j,1.091720899916254,None,,,test1,001,2025-09-26_09h29.00.636,Priming_gender,,2025.1.1,60.39978617722242,2025-09-26 09h29.09.244076 +0700,
None,None,None,None,women.png,จิตติมา,11,66,136,111,31,2,,,,j,0.7104215000290424,None,,,,,2,31,111,36,215.78855479997583,,,,,,,,,,,,,,,,,,,,,,,,,215.77600279997569,215.78855479997583,215.78855479997583,215.78855479997583,215.78855479997583,215.78855479997583,215.78855479997583,216.0499276999617,216.09929229994304,216.51472879992798,j,0.7104215000290424,None,,,test1,001,2025-09-26_09h29.00.636,Priming_gender,,2025.1.1,60.39978617722242,2025-09-26 09h29.09.244076 +0700,
นเรศ,พิมพ์ใจ,women.png,นเรศ,men.png,นเรศ,10,51,101,112,32,2,,,,k,0.938064599991776,None,,,,,2,32,112,1,216.55283589998726,,,,,,,,,,,,,,,,,,,,,,,,,216.5430670999922,216.55283589998726,216.55283589998726,216.55283589998726,216.55283589998726,216.55283589998726,216.55283589998726,216.83141369989607,216.86408219998702,217.49798359989654,k,0.938064599991776,None,,,test1,001,2025-09-26_09h29.00.636,Priming_gender,,2025.1.1,60.39978617722242,2025-09-26 09h29.09.244076 +0700,
None,None,None,None,women.png,ศิริพร,11,64,134,113,33,2,,,,j,1.0110274000326172,None,,,,,2,33,113,34,217.5363742999034,,,,,,,,,,,,,,,,,,,,,,,,,217.52539159997832,217.5363742999034,217.5363742999034,217.5363742999034,217.5363742999034,217.5363742999034,217.5363742999034,217.79762309999205,217.84887039999012,218.56513040000573,j,1.0110274000326172,None,,,test1,001,2025-09-26_09h29.00.636,Priming_gender,,2025.1.1,60.39978617722242,2025-09-26 09h29.09.244076 +0700,
None,None,None,None,women.png,ศักดิ์สิทธิ์,11,58,128,114,34,2,,,,j,1.4762205999577418,None,,,,,2,34,114,28,218.60694799991325,,,,,,,,,,,,,,,,,,,,,,,,,218.59447069989983,218.60694799991325,218.60694799991325,218.60694799991325,218.60694799991325,218.60694799991325,218.60694799991325,218.86596799991094,218.9168919000076,220.09811879997142,j,1.4762205999577418,None,,,test1,001,2025-09-26_09h29.00.636,Priming_gender,,2025.1.1,60.39978617722242,2025-09-26 09h29.09.244076 +0700,
None,None,None,None,women.png,กาญจนา,11,60,130,115,35,2,,,,j,0.7294730999274179,None,,,,,2,35,115,30,220.13695379998535,,,,,,,,,,,,,,,,,,,,,,,,,220.12560759996995,220.13695379998535,220.13695379998535,220.13695379998535,220.13695379998535,220.13695379998535,220.13695379998535,220.41480639996007,220.44786889990792,220.88200819992926,j,0.7294730999274179,None,,,test1,001,2025-09-26_09h29.00.636,Priming_gender,,2025.1.1,60.39978617722242,2025-09-26 09h29.09.244076 +0700,
None,None,None,วรรณา,men.png,วรรณา,10,67,117,116,36,2,,,,k,1.707393900025636,None,,,,,2,36,116,17,220.92012769996654,,,,,,,,,,,,,,,,,,,,,,,,,220.90918169997167,220.92012769996654,220.92012769996654,220.92012769996654,220.92012769996654,220.92012769996654,220.92012769996654,221.19809929991607,221.23096149996854,222.63154889992438,k,1.707393900025636,None,,,test1,001,2025-09-26_09h29.00.636,Priming_gender,,2025.1.1,60.39978617722242,2025-09-26 09h29.09.244076 +0700,
กฤษณะ,กาญจนา,men.png,กฤษณะ,men.png,กฤษณะ,10,50,100,117,37,2,,,,k,0.6895698000444099,None,,,,,2,37,117,0,222.67363259999547,,,,,,,,,,,,,,,,,,,,,,,,,222.6608604999492,222.67363259999547,222.67363259999547,222.67363259999547,222.67363259999547,222.67363259999547,222.67363259999547,222.93095389998052,222.98121639993042,223.3646050998941,k,0.6895698000444099,None,,,test1,001,2025-09-26_09h29.00.636,Priming_gender,,2025.1.1,60.39978617722242,2025-09-26 09h29.09.244076 +0700,
None,None,None,None,women.png,วาสนา,11,62,132,118,38,2,,,,j,1.4621582000982016,None,,,,,2,38,118,32,223.40408149990253,,,,,,,,,,,,,,,,,,,,,,,,,223.39249779994134,223.40408149990253,223.40408149990253,223.40408149990253,223.40408149990253,223.40408149990253,223.40408149990253,223.6648026999319,223.7146994000068,224.88183619990014,j,1.4621582000982016,None,,,test1,001,2025-09-26_09h29.00.636,Priming_gender,,2025.1.1,60.39978617722242,2025-09-26 09h29.09.244076 +0700,
None,None,None,วาสนา,men.png,วาสนา,10,62,112,119,39,2,,,,k,1.1943957000039518,None,,,,,2,39,119,12,224.9204428999219,,,,,,,,,,,,,,,,,,,,,,,,,224.90928939997684,224.9204428999219,224.9204428999219,224.9204428999219,224.9204428999219,224.9204428999219,224.9204428999219,225.18108349991962,225.23123099992517,226.11611699999776,k,1.1943957000039518,None,,,test1,001,2025-09-26_09h29.00.636,Priming_gender,,2025.1.1,60.39978617722242,2025-09-26 09h29.09.244076 +0700,
,,,,,,,,,,,,,,,,,,,,,,,,,,,,,,,,,,,,,,,,,,,,,,,,,,,,,,,,,,,,,,,,226.22342199995182,226.22378759994172,test1,001,2025-09-26_09h29.00.636,Priming_gender,,2025.1.1,60.39978617722242,2025-09-26 09h29.09.244076 +0700,
