Male,Female,Image,Name,ImagePriming,NamePriming,ImageTrig,NameTrig,Trig,thisN,thisTrialN,thisRepN,key_resp.keys,key_resp.rt,key_resp.duration,key_resp_3.keys,key_resp_3.rt,key_resp_3.duration,training.thisRepN,training.thisTrialN,training.thisN,training.thisIndex,priming.thisRepN,priming.thisTrialN,priming.thisN,priming.thisIndex,thisRow.t,notes,training_Instruction.started,instruction_slide.started,instruction_continue.started,training_Instruction.stopped,instruction_continue.keys,instruction_continue.rt,instruction_continue.duration,training_block.started,MAN.started,WOMAN.started,pic.started,key_resp.started,training_block.stopped,training.key_resp.keys,training.key_resp.rt,training.key_resp.duration,priming_instruction.started,instruction_slide_2.started,instruction_continue_2.started,priming_instruction.stopped,instruction_continue_2.keys,instruction_continue_2.rt,instruction_continue_2.duration,priming_block.started,MAN_3.started,MAN_3_desc.started,WOMAN_3.started,WOMAN_3_desc.started,name_2.started,key_resp_3.started,pic_2.started,name_2.stopped,priming_block.stopped,priming.key_resp_3.keys,priming.key_resp_3.rt,priming.key_resp_3.duration,Ending.started,Ending.stopped,participant,session,date,expName,expVersion,psychopyVersion,frameRate,expStart,
,,,,,,,,,,,,,,,,,,,,,,,,,,,,0.008082199958153069,0.02819790004286915,0.02819790004286915,1.7653191999997944,space,1.7283649999881163,None,,,,,,,,,,,,,,,,,,,,,,,,,,,,,,,,test1,003,2025-09-26_09h36.58.434,Priming_gender,,2025.1.1,60.733158554698555,2025-09-26 09h37.10.866297 +0700,
นเรศ,พิมพ์ใจ,women.png,นเรศ,men.png,นเรศ,10,51,101,0,0,0,j,0.9095836000051349,None,,,,0,0,0,1,,,,,1.837402099976316,,,,,,,,,1.8225178000284359,1.837402099976316,1.837402099976316,1.837402099976316,1.837402099976316,2.7582949000643566,j,0.9095836000051349,None,,,,,,,,,,,,,,,,,,,,,,,test1,003,2025-09-26_09h36.58.434,Priming_gender,,2025.1.1,60.733158554698555,2025-09-26 09h37.10.866297 +0700,
กฤษณะ,กาญจนา,men.png,กฤษณะ,men.png,กฤษณะ,10,50,100,1,1,0,k,0.5444588999962434,None,,,,0,1,1,0,,,,,2.7950156000442803,,,,,,,,,2.7874802000587806,2.7950156000442803,2.7950156000442803,2.7950156000442803,2.7950156000442803,3.3426942999940366,k,0.5444588999962434,None,,,,,,,,,,,,,,,,,,,,,,,test1,003,2025-09-26_09h36.58.434,Priming_gender,,2025.1.1,60.733158554698555,2025-09-26 09h37.10.866297 +0700,
นเรศ,พิมพ์ใจ,women.png,นเรศ,men.png,นเรศ,10,51,101,2,2,1,j,0.5173792999703437,None,,,,1,2,2,1,,,,,3.381925499998033,,,,,,,,,3.3724173000082374,3.381925499998033,3.381925499998033,3.381925499998033,3.381925499998033,3.908054700004868,j,0.5173792999703437,None,,,,,,,,,,,,,,,,,,,,,,,test1,003,2025-09-26_09h36.58.434,Priming_gender,,2025.1.1,60.733158554698555,2025-09-26 09h37.10.866297 +0700,
นเรศ,พิมพ์ใจ,women.png,นเรศ,men.png,นเรศ,10,51,101,3,3,2,j,0.6736462999833748,None,,,,2,3,3,1,,,,,3.9455683999694884,,,,,,,,,3.9371562000596896,3.9455683999694884,3.9455683999694884,3.9455683999694884,3.9455683999694884,4.625090399989858,j,0.6736462999833748,None,,,,,,,,,,,,,,,,,,,,,,,test1,003,2025-09-26_09h36.58.434,Priming_gender,,2025.1.1,60.733158554698555,2025-09-26 09h37.10.866297 +0700,
กฤษณะ,กาญจนา,men.png,กฤษณะ,men.png,กฤษณะ,10,50,100,4,4,1,k,0.580954400007613,None,,,,1,4,4,0,,,,,4.662052600062452,,,,,,,,,4.653576200013049,4.662052600062452,4.662052600062452,4.662052600062452,4.662052600062452,5.25861400004942,k,0.580954400007613,None,,,,,,,,,,,,,,,,,,,,,,,test1,003,2025-09-26_09h36.58.434,Priming_gender,,2025.1.1,60.733158554698555,2025-09-26 09h37.10.866297 +0700,
กฤษณะ,กาญจนา,men.png,กฤษณะ,men.png,กฤษณะ,10,50,100,5,5,2,k,0.3472928999690339,None,,,,2,5,5,0,,,,,5.295650399988517,,,,,,,,,5.287446000031196,5.295650399988517,5.295650399988517,5.295650399988517,5.295650399988517,5.658134000026621,k,0.3472928999690339,None,,,,,,,,,,,,,,,,,,,,,,,test1,003,2025-09-26_09h36.58.434,Priming_gender,,2025.1.1,60.733158554698555,2025-09-26 09h37.10.866297 +0700,
กฤษณะ,กาญจนา,men.png,กฤษณะ,men.png,กฤษณะ,10,50,100,6,6,3,k,0.397484700079076,None,,,,3,6,6,0,,,,,5.693777200067416,,,,,,,,,5.686218300019391,5.693777200067416,5.693777200067416,5.693777200067416,5.693777200067416,6.107958100037649,k,0.397484700079076,None,,,,,,,,,,,,,,,,,,,,,,,test1,003,2025-09-26_09h36.58.434,Priming_gender,,2025.1.1,60.733158554698555,2025-09-26 09h37.10.866297 +0700,
กฤษณะ,กาญจนา,men.png,กฤษณะ,men.png,กฤษณะ,10,50,100,7,7,4,k,0.4126645000651479,None,,,,4,7,7,0,,,,,6.143935400061309,,,,,,,,,6.135974699980579,6.143935400061309,6.143935400061309,6.143935400061309,6.143935400061309,6.5583642000565305,k,0.4126645000651479,None,,,,,,,,,,,,,,,,,,,,,,,test1,003,2025-09-26_09h36.58.434,Priming_gender,,2025.1.1,60.733158554698555,2025-09-26 09h37.10.866297 +0700,
นเรศ,พิมพ์ใจ,women.png,นเรศ,men.png,นเรศ,10,51,101,8,8,3,j,0.7101131998933852,None,,,,3,8,8,1,,,,,6.597141799982637,,,,,,,,,6.588107899995521,6.597141799982637,6.597141799982637,6.597141799982637,6.597141799982637,7.3084017999935895,j,0.7101131998933852,None,,,,,,,,,,,,,,,,,,,,,,,test1,003,2025-09-26_09h36.58.434,Priming_gender,,2025.1.1,60.733158554698555,2025-09-26 09h37.10.866297 +0700,
กฤษณะ,กาญจนา,men.png,กฤษณะ,men.png,กฤษณะ,10,50,100,9,9,5,k,1.1128557999618351,None,,,,5,9,9,0,,,,,7.346245800028555,,,,,,,,,7.337011400028132,7.346245800028555,7.346245800028555,7.346245800028555,7.346245800028555,8.474283499992453,k,1.1128557999618351,None,,,,,,,,,,,,,,,,,,,,,,,test1,003,2025-09-26_09h36.58.434,Priming_gender,,2025.1.1,60.733158554698555,2025-09-26 09h37.10.866297 +0700,
นเรศ,พิมพ์ใจ,women.png,นเรศ,men.png,นเรศ,10,51,101,10,10,4,j,1.1653520000400022,None,,,,4,10,10,1,,,,,8.509978399961255,,,,,,,,,8.501723399967887,8.509978399961255,8.509978399961255,8.509978399961255,8.509978399961255,9.69144680001773,j,1.1653520000400022,None,,,,,,,,,,,,,,,,,,,,,,,test1,003,2025-09-26_09h36.58.434,Priming_gender,,2025.1.1,60.733158554698555,2025-09-26 09h37.10.866297 +0700,
กฤษณะ,กาญจนา,men.png,กฤษณะ,men.png,กฤษณะ,10,50,100,11,11,6,k,0.5881423000246286,None,,,,6,11,11,0,,,,,9.727619500015862,,,,,,,,,9.718722000019625,9.727619500015862,9.727619500015862,9.727619500015862,9.727619500015862,10.325013700057752,k,0.5881423000246286,None,,,,,,,,,,,,,,,,,,,,,,,test1,003,2025-09-26_09h36.58.434,Priming_gender,,2025.1.1,60.733158554698555,2025-09-26 09h37.10.866297 +0700,
นเรศ,พิมพ์ใจ,women.png,นเรศ,men.png,นเรศ,10,51,101,12,12,5,j,0.5605316000292078,None,,,,5,12,12,1,,,,,10.362941800034605,,,,,,,,,10.353261700016446,10.362941800034605,10.362941800034605,10.362941800034605,10.362941800034605,10.924620100064203,j,0.5605316000292078,None,,,,,,,,,,,,,,,,,,,,,,,test1,003,2025-09-26_09h36.58.434,Priming_gender,,2025.1.1,60.733158554698555,2025-09-26 09h37.10.866297 +0700,
กฤษณะ,กาญจนา,men.png,กฤษณะ,men.png,กฤษณะ,10,50,100,13,13,7,k,0.5046206000261009,None,,,,7,13,13,0,,,,,10.96300039999187,,,,,,,,,10.953573900042102,10.96300039999187,10.96300039999187,10.96300039999187,10.96300039999187,11.475071600056253,k,0.5046206000261009,None,,,,,,,,,,,,,,,,,,,,,,,test1,003,2025-09-26_09h36.58.434,Priming_gender,,2025.1.1,60.733158554698555,2025-09-26 09h37.10.866297 +0700,
กฤษณะ,กาญจนา,men.png,กฤษณะ,men.png,กฤษณะ,10,50,100,14,14,8,k,0.5967292999848723,None,,,,8,14,14,0,,,,,11.510573400068097,,,,,,,,,11.502035500016063,11.510573400068097,11.510573400068097,11.510573400068097,11.510573400068097,12.108670399989933,k,0.5967292999848723,None,,,,,,,,,,,,,,,,,,,,,,,test1,003,2025-09-26_09h36.58.434,Priming_gender,,2025.1.1,60.733158554698555,2025-09-26 09h37.10.866297 +0700,
กฤษณะ,กาญจนา,men.png,กฤษณะ,men.png,กฤษณะ,10,50,100,15,15,9,k,1.0810447999974713,None,,,,9,15,15,0,,,,,12.145896299974993,,,,,,,,,12.137402800028212,12.145896299974993,12.145896299974993,12.145896299974993,12.145896299974993,13.240788200055249,k,1.0810447999974713,None,,,,,,,,,,,,,,,,,,,,,,,test1,003,2025-09-26_09h36.58.434,Priming_gender,,2025.1.1,60.733158554698555,2025-09-26 09h37.10.866297 +0700,
นเรศ,พิมพ์ใจ,women.png,นเรศ,men.png,นเรศ,10,51,101,16,16,6,j,1.1323442000430077,None,,,,6,16,16,1,,,,,13.278938099974766,,,,,,,,,13.270543599966913,13.278938099974766,13.278938099974766,13.278938099974766,13.278938099974766,14.424934900016524,j,1.1323442000430077,None,,,,,,,,,,,,,,,,,,,,,,,test1,003,2025-09-26_09h36.58.434,Priming_gender,,2025.1.1,60.733158554698555,2025-09-26 09h37.10.866297 +0700,
กฤษณะ,กาญจนา,men.png,กฤษณะ,men.png,กฤษณะ,10,50,100,17,17,10,k,0.682843100046739,None,,,,10,17,17,0,,,,,14.464177399990149,,,,,,,,,14.455263799987733,14.464177399990149,14.464177399990149,14.464177399990149,14.464177399990149,15.157679000054486,k,0.682843100046739,None,,,,,,,,,,,,,,,,,,,,,,,test1,003,2025-09-26_09h36.58.434,Priming_gender,,2025.1.1,60.733158554698555,2025-09-26 09h37.10.866297 +0700,
กฤษณะ,กาญจนา,men.png,กฤษณะ,men.png,กฤษณะ,10,50,100,18,18,11,k,0.5130720000015572,None,,,,11,18,18,0,,,,,15.194430500036106,,,,,,,,,15.185995899955742,15.194430500036106,15.194430500036106,15.194430500036106,15.194430500036106,15.708471299964003,k,0.5130720000015572,None,,,,,,,,,,,,,,,,,,,,,,,test1,003,2025-09-26_09h36.58.434,Priming_gender,,2025.1.1,60.733158554698555,2025-09-26 09h37.10.866297 +0700,
กฤษณะ,กาญจนา,men.png,กฤษณะ,men.png,กฤษณะ,10,50,100,19,19,12,k,0.34481909999158233,None,,,,12,19,19,0,,,,,15.746420999988914,,,,,,,,,15.738095000036992,15.746420999988914,15.746420999988914,15.746420999988914,15.746420999988914,16.10730060003698,k,0.34481909999158233,None,,,,,,,,,,,,,,,,,,,,,,,test1,003,2025-09-26_09h36.58.434,Priming_gender,,2025.1.1,60.733158554698555,2025-09-26 09h37.10.866297 +0700,
นเรศ,พิมพ์ใจ,women.png,นเรศ,men.png,นเรศ,10,51,101,20,20,7,j,0.682429900043644,None,,,,7,20,20,1,,,,,16.14479879999999,,,,,,,,,16.137434700038284,16.14479879999999,16.14479879999999,16.14479879999999,16.14479879999999,16.842057800036855,j,0.682429900043644,None,,,,,,,,,,,,,,,,,,,,,,,test1,003,2025-09-26_09h36.58.434,Priming_gender,,2025.1.1,60.733158554698555,2025-09-26 09h37.10.866297 +0700,
นเรศ,พิมพ์ใจ,women.png,นเรศ,men.png,นเรศ,10,51,101,21,21,8,j,0.5232894999207929,None,,,,8,21,21,1,,,,,16.88134550000541,,,,,,,,,16.873173600062728,16.88134550000541,16.88134550000541,16.88134550000541,16.88134550000541,17.409553000004962,j,0.5232894999207929,None,,,,,,,,,,,,,,,,,,,,,,,test1,003,2025-09-26_09h36.58.434,Priming_gender,,2025.1.1,60.733158554698555,2025-09-26 09h37.10.866297 +0700,
กฤษณะ,กาญจนา,men.png,กฤษณะ,men.png,กฤษณะ,10,50,100,22,22,13,k,0.8041261000325903,None,,,,13,22,22,0,,,,,17.447868900024332,,,,,,,,,17.43895280000288,17.447868900024332,17.447868900024332,17.447868900024332,17.447868900024332,18.257179200067185,k,0.8041261000325903,None,,,,,,,,,,,,,,,,,,,,,,,test1,003,2025-09-26_09h36.58.434,Priming_gender,,2025.1.1,60.733158554698555,2025-09-26 09h37.10.866297 +0700,
นเรศ,พิมพ์ใจ,women.png,นเรศ,men.png,นเรศ,10,51,101,23,23,9,j,0.8216151999076828,None,,,,9,23,23,1,,,,,18.293492799974047,,,,,,,,,18.28512779995799,18.293492799974047,18.293492799974047,18.293492799974047,18.293492799974047,19.123908799956553,j,0.8216151999076828,None,,,,,,,,,,,,,,,,,,,,,,,test1,003,2025-09-26_09h36.58.434,Priming_gender,,2025.1.1,60.733158554698555,2025-09-26 09h37.10.866297 +0700,
กฤษณะ,กาญจนา,men.png,กฤษณะ,men.png,กฤษณะ,10,50,100,24,24,14,k,0.655044800019823,None,,,,14,24,24,0,,,,,19.16416379995644,,,,,,,,,19.154231399996206,19.16416379995644,19.16416379995644,19.16416379995644,19.16416379995644,19.824319600011222,k,0.655044800019823,None,,,,,,,,,,,,,,,,,,,,,,,test1,003,2025-09-26_09h36.58.434,Priming_gender,,2025.1.1,60.733158554698555,2025-09-26 09h37.10.866297 +0700,
นเรศ,พิมพ์ใจ,women.png,นเรศ,men.png,นเรศ,10,51,101,25,25,10,j,0.5663966999854892,None,,,,10,25,25,1,,,,,19.86049470002763,,,,,,,,,19.85215439996682,19.86049470002763,19.86049470002763,19.86049470002763,19.86049470002763,20.440186199964955,j,0.5663966999854892,None,,,,,,,,,,,,,,,,,,,,,,,test1,003,2025-09-26_09h36.58.434,Priming_gender,,2025.1.1,60.733158554698555,2025-09-26 09h37.10.866297 +0700,
นเรศ,พิมพ์ใจ,women.png,นเรศ,men.png,นเรศ,10,51,101,26,26,11,j,0.6061117999488488,None,,,,11,26,26,1,,,,,20.477308199973777,,,,,,,,,20.46841009997297,20.477308199973777,20.477308199973777,20.477308199973777,20.477308199973777,21.090534399962053,j,0.6061117999488488,None,,,,,,,,,,,,,,,,,,,,,,,test1,003,2025-09-26_09h36.58.434,Priming_gender,,2025.1.1,60.733158554698555,2025-09-26 09h37.10.866297 +0700,
นเรศ,พิมพ์ใจ,women.png,นเรศ,men.png,นเรศ,10,51,101,27,27,12,j,1.2036778000183403,None,,,,12,27,27,1,,,,,21.127633500029333,,,,,,,,,21.118701600003988,21.127633500029333,21.127633500029333,21.127633500029333,21.127633500029333,22.3401065999642,j,1.2036778000183403,None,,,,,,,,,,,,,,,,,,,,,,,test1,003,2025-09-26_09h36.58.434,Priming_gender,,2025.1.1,60.733158554698555,2025-09-26 09h37.10.866297 +0700,
กฤษณะ,กาญจนา,men.png,กฤษณะ,men.png,กฤษณะ,10,50,100,28,28,15,k,0.7708758000517264,None,,,,15,28,28,0,,,,,22.376770499977283,,,,,,,,,22.367815800011158,22.376770499977283,22.376770499977283,22.376770499977283,22.376770499977283,23.156293599982746,k,0.7708758000517264,None,,,,,,,,,,,,,,,,,,,,,,,test1,003,2025-09-26_09h36.58.434,Priming_gender,,2025.1.1,60.733158554698555,2025-09-26 09h37.10.866297 +0700,
กฤษณะ,กาญจนา,men.png,กฤษณะ,men.png,กฤษณะ,10,50,100,29,29,16,k,0.6891448999522254,None,,,,16,29,29,0,,,,,23.19466849998571,,,,,,,,,23.185229400056414,23.19466849998571,23.19466849998571,23.19466849998571,23.19466849998571,23.890770100057125,k,0.6891448999522254,None,,,,,,,,,,,,,,,,,,,,,,,test1,003,2025-09-26_09h36.58.434,Priming_gender,,2025.1.1,60.733158554698555,2025-09-26 09h37.10.866297 +0700,
นเรศ,พิมพ์ใจ,women.png,นเรศ,men.png,นเรศ,10,51,101,30,30,13,j,1.6847447999753058,None,,,,13,30,30,1,,,,,23.92629890004173,,,,,,,,,23.918260500067845,23.92629890004173,23.92629890004173,23.92629890004173,23.92629890004173,25.62359380000271,j,1.6847447999753058,None,,,,,,,,,,,,,,,,,,,,,,,test1,003,2025-09-26_09h36.58.434,Priming_gender,,2025.1.1,60.733158554698555,2025-09-26 09h37.10.866297 +0700,
นเรศ,พิมพ์ใจ,women.png,นเรศ,men.png,นเรศ,10,51,101,31,31,14,j,0.39731310005299747,None,,,,14,31,31,1,,,,,25.66168550006114,,,,,,,,,25.651983799994923,25.66168550006114,25.66168550006114,25.66168550006114,25.66168550006114,26.073436200036667,j,0.39731310005299747,None,,,,,,,,,,,,,,,,,,,,,,,test1,003,2025-09-26_09h36.58.434,Priming_gender,,2025.1.1,60.733158554698555,2025-09-26 09h37.10.866297 +0700,
นเรศ,พิมพ์ใจ,women.png,นเรศ,men.png,นเรศ,10,51,101,32,32,15,j,0.5889658000087366,None,,,,15,32,32,1,,,,,26.110581499990076,,,,,,,,,26.101741099962965,26.110581499990076,26.110581499990076,26.110581499990076,26.110581499990076,26.707440000027418,j,0.5889658000087366,None,,,,,,,,,,,,,,,,,,,,,,,test1,003,2025-09-26_09h36.58.434,Priming_gender,,2025.1.1,60.733158554698555,2025-09-26 09h37.10.866297 +0700,
กฤษณะ,กาญจนา,men.png,กฤษณะ,men.png,กฤษณะ,10,50,100,33,33,17,k,0.7211772999726236,None,,,,17,33,33,0,,,,,26.746551600052044,,,,,,,,,26.738115399959497,26.746551600052044,26.746551600052044,26.746551600052044,26.746551600052044,27.474176399991848,k,0.7211772999726236,None,,,,,,,,,,,,,,,,,,,,,,,test1,003,2025-09-26_09h36.58.434,Priming_gender,,2025.1.1,60.733158554698555,2025-09-26 09h37.10.866297 +0700,
กฤษณะ,กาญจนา,men.png,กฤษณะ,men.png,กฤษณะ,10,50,100,34,34,18,k,1.0275461999699473,None,,,,18,34,34,0,,,,,27.512607399956323,,,,,,,,,27.504324099980295,27.512607399956323,27.512607399956323,27.512607399956323,27.512607399956323,28.55648689996451,k,1.0275461999699473,None,,,,,,,,,,,,,,,,,,,,,,,test1,003,2025-09-26_09h36.58.434,Priming_gender,,2025.1.1,60.733158554698555,2025-09-26 09h37.10.866297 +0700,
นเรศ,พิมพ์ใจ,women.png,นเรศ,men.png,นเรศ,10,51,101,35,35,16,j,0.6475219000130892,None,,,,16,35,35,1,,,,,28.595378100057133,,,,,,,,,28.58617070002947,28.595378100057133,28.595378100057133,28.595378100057133,28.595378100057133,29.258813100052066,j,0.6475219000130892,None,,,,,,,,,,,,,,,,,,,,,,,test1,003,2025-09-26_09h36.58.434,Priming_gender,,2025.1.1,60.733158554698555,2025-09-26 09h37.10.866297 +0700,
นเรศ,พิมพ์ใจ,women.png,นเรศ,men.png,นเรศ,10,51,101,36,36,17,j,0.920847300090827,None,,,,17,36,36,1,,,,,29.298965699970722,,,,,,,,,29.290099899983034,29.298965699970722,29.298965699970722,29.298965699970722,29.298965699970722,30.223909600055777,j,0.920847300090827,None,,,,,,,,,,,,,,,,,,,,,,,test1,003,2025-09-26_09h36.58.434,Priming_gender,,2025.1.1,60.733158554698555,2025-09-26 09h37.10.866297 +0700,
นเรศ,พิมพ์ใจ,women.png,นเรศ,men.png,นเรศ,10,51,101,37,37,18,k,1.1104170000180602,None,,,,18,37,37,1,,,,,30.260897899977863,,,,,,,,,30.25253529998008,30.260897899977863,30.260897899977863,30.260897899977863,30.260897899977863,31.373129799962044,k,1.1104170000180602,None,,,,,,,,,,,,,,,,,,,,,,,test1,003,2025-09-26_09h36.58.434,Priming_gender,,2025.1.1,60.733158554698555,2025-09-26 09h37.10.866297 +0700,
นเรศ,พิมพ์ใจ,women.png,นเรศ,men.png,นเรศ,10,51,101,38,38,19,j,0.5367693000007421,None,,,,19,38,38,1,,,,,31.410911199986003,,,,,,,,,31.401382100069895,31.410911199986003,31.410911199986003,31.410911199986003,31.410911199986003,31.956571400049143,j,0.5367693000007421,None,,,,,,,,,,,,,,,,,,,,,,,test1,003,2025-09-26_09h36.58.434,Priming_gender,,2025.1.1,60.733158554698555,2025-09-26 09h37.10.866297 +0700,
กฤษณะ,กาญจนา,men.png,กฤษณะ,men.png,กฤษณะ,10,50,100,39,39,19,k,0.5148409999674186,None,,,,19,39,39,0,,,,,31.992658899980597,,,,,,,,,31.9847221999662,31.992658899980597,31.992658899980597,31.992658899980597,31.992658899980597,32.523563600028865,k,0.5148409999674186,None,,,,,,,,,,,,,,,,,,,,,,,test1,003,2025-09-26_09h36.58.434,Priming_gender,,2025.1.1,60.733158554698555,2025-09-26 09h37.10.866297 +0700,
,,,,,,,,,,,,,,,,,,,,,,,,,,,,,,,,,,,,,,,,,,,,32.523708099965006,32.54093030001968,32.54093030001968,33.54213099996559,space,0.990876300027594,None,,,,,,,,,,,,,,,,test1,003,2025-09-26_09h36.58.434,Priming_gender,,2025.1.1,60.733158554698555,2025-09-26 09h37.10.866297 +0700,
None,None,None,None,women.png,ภูมิพัฒน์,11,56,126,0,0,0,,,,j,1.2068259000079706,None,,,,,0,0,0,26,33.62008420005441,,,,,,,,,,,,,,,,,,,,,,,,,33.60026169999037,33.62008420005441,33.62008420005441,33.62008420005441,33.62008420005441,33.62008420005441,33.62008420005441,33.85661789996084,33.92287260002922,34.83934990002308,j,1.2068259000079706,None,,,test1,003,2025-09-26_09h36.58.434,Priming_gender,,2025.1.1,60.733158554698555,2025-09-26 09h37.10.866297 +0700,
ศักดิ์สิทธิ์,สุนิสา,None,ศักดิ์สิทธิ์,men.png,ศักดิ์สิทธิ์,10,58,108,1,1,0,,,,k,0.6847400000551715,None,,,,,0,1,1,8,34.89422370004468,,,,,,,,,,,,,,,,,,,,,,,,,34.88186019996647,34.89422370004468,34.89422370004468,34.89422370004468,34.89422370004468,34.89422370004468,34.89422370004468,35.13954280002508,35.20603060000576,35.58930720004719,k,0.6847400000551715,None,,,test1,003,2025-09-26_09h36.58.434,Priming_gender,,2025.1.1,60.733158554698555,2025-09-26 09h37.10.866297 +0700,
None,None,None,สุนิสา,men.png,สุนิสา,10,68,118,2,2,0,,,,k,1.3529256000183523,None,,,,,0,2,2,18,35.63464689999819,,,,,,,,,,,,,,,,,,,,,,,,,35.62286330002826,35.63464689999819,35.63464689999819,35.63464689999819,35.63464689999819,35.63464689999819,35.63464689999819,35.889308299985714,35.93927360000089,36.98923690000083,k,1.3529256000183523,None,,,test1,003,2025-09-26_09h36.58.434,Priming_gender,,2025.1.1,60.733158554698555,2025-09-26 09h37.10.866297 +0700,
พิสิฐ,ปัทมา,None,พิสิฐ,men.png,พิสิฐ,10,59,109,3,3,0,,,,k,0.9608580999774858,None,,,,,0,3,3,9,37.0342096000677,,,,,,,,,,,,,,,,,,,,,,,,,37.02176579996012,37.0342096000677,37.0342096000677,37.0342096000677,37.0342096000677,37.0342096000677,37.0342096000677,37.28965439996682,37.339091500034556,38.00640620000195,k,0.9608580999774858,None,,,test1,003,2025-09-26_09h36.58.434,Priming_gender,,2025.1.1,60.733158554698555,2025-09-26 09h37.10.866297 +0700,
None,None,None,None,women.png,วาสนา,11,62,132,4,4,0,,,,j,1.0179764999775216,None,,,,,0,4,4,32,38.04947239998728,,,,,,,,,,,,,,,,,,,,,,,,,38.03828550002072,38.04947239998728,38.04947239998728,38.04947239998728,38.04947239998728,38.04947239998728,38.04947239998728,38.32247430004645,38.3558570999885,39.07255170005374,j,1.0179764999775216,None,,,test1,003,2025-09-26_09h36.58.434,Priming_gender,,2025.1.1,60.733158554698555,2025-09-26 09h37.10.866297 +0700,
ปริญญา,อาภรณ์,None,ปริญญา,men.png,ปริญญา,10,55,105,5,5,0,,,,k,1.0434935000957921,None,,,,,0,5,5,5,39.1294082000386,,,,,,,,,,,,,,,,,,,,,,,,,39.111883500008844,39.1294082000386,39.1294082000386,39.1294082000386,39.1294082000386,39.1294082000386,39.1294082000386,39.37226430000737,39.43935260002036,40.1752144000493,k,1.0434935000957921,None,,,test1,003,2025-09-26_09h36.58.434,Priming_gender,,2025.1.1,60.733158554698555,2025-09-26 09h37.10.866297 +0700,
วรพล,วรรณา,None,วรพล,men.png,วรพล,10,57,107,6,6,0,,,,k,0.7805686999345198,None,,,,,0,6,6,7,40.223535700002685,,,,,,,,,,,,,,,,,,,,,,,,,40.210556700010784,40.223535700002685,40.223535700002685,40.223535700002685,40.223535700002685,40.223535700002685,40.223535700002685,40.489389800000936,40.53889760002494,41.00593039998785,k,0.7805686999345198,None,,,test1,003,2025-09-26_09h36.58.434,Priming_gender,,2025.1.1,60.733158554698555,2025-09-26 09h37.10.866297 +0700,
None,None,None,None,women.png,สุนิสา,11,68,138,7,7,0,,,,j,1.701822700095363,None,,,,,0,7,7,38,41.04479109996464,,,,,,,,,,,,,,,,,,,,,,,,,41.033187499968335,41.04479109996464,41.04479109996464,41.04479109996464,41.04479109996464,41.04479109996464,41.04479109996464,41.32222610001918,41.3558086999692,42.75556880002841,j,1.701822700095363,None,,,test1,003,2025-09-26_09h36.58.434,Priming_gender,,2025.1.1,60.733158554698555,2025-09-26 09h37.10.866297 +0700,
None,None,None,None,women.png,ปัทมา,11,69,139,8,8,0,,,,j,2.016461899969727,None,,,,,0,8,8,39,42.79441480000969,,,,,,,,,,,,,,,,,,,,,,,,,42.78289360005874,42.79441480000969,42.79441480000969,42.79441480000969,42.79441480000969,42.79441480000969,42.79441480000969,43.056762899970636,43.1059328999836,44.822391900001094,j,2.016461899969727,None,,,test1,003,2025-09-26_09h36.58.434,Priming_gender,,2025.1.1,60.733158554698555,2025-09-26 09h37.10.866297 +0700,
None,None,None,None,women.png,ชัยวัฒน์,11,54,124,9,9,0,,,,k,1.1904041999951005,None,,,,,0,9,9,24,44.86823679995723,,,,,,,,,,,,,,,,,,,,,,,,,44.85547950002365,44.86823679995723,44.86823679995723,44.86823679995723,44.86823679995723,44.86823679995723,44.86823679995723,45.12289410002995,45.172115799970925,46.07315609999932,k,1.1904041999951005,None,,,test1,003,2025-09-26_09h36.58.434,Priming_gender,,2025.1.1,60.733158554698555,2025-09-26 09h37.10.866297 +0700,
None,None,None,None,women.png,สุพัตรา,11,63,133,10,10,0,,,,j,2.277562199975364,None,,,,,0,10,10,33,46.117619100026786,,,,,,,,,,,,,,,,,,,,,,,,,46.10438460006844,46.117619100026786,46.117619100026786,46.117619100026786,46.117619100026786,46.117619100026786,46.117619100026786,46.373135500005446,46.423641200060956,48.40525720000733,j,2.277562199975364,None,,,test1,003,2025-09-26_09h36.58.434,Priming_gender,,2025.1.1,60.733158554698555,2025-09-26 09h37.10.866297 +0700,
None,None,None,None,women.png,อาภรณ์,11,65,135,11,11,0,,,,j,0.8230968000134453,None,,,,,0,11,11,35,48.45154060004279,,,,,,,,,,,,,,,,,,,,,,,,,48.43889760004822,48.45154060004279,48.45154060004279,48.45154060004279,48.45154060004279,48.45154060004279,48.45154060004279,48.70670920005068,48.756665399996564,49.29060109995771,j,0.8230968000134453,None,,,test1,003,2025-09-26_09h36.58.434,Priming_gender,,2025.1.1,60.733158554698555,2025-09-26 09h37.10.866297 +0700,
None,None,None,None,women.png,ปริญญา,11,55,125,12,12,0,,,,j,1.0007682000286877,None,,,,,0,12,12,25,49.33055559999775,,,,,,,,,,,,,,,,,,,,,,,,,49.31900670006871,49.33055559999775,49.33055559999775,49.33055559999775,49.33055559999775,49.33055559999775,49.33055559999775,49.60541189997457,49.64038960007019,50.3390161000425,j,1.0007682000286877,None,,,test1,003,2025-09-26_09h36.58.434,Priming_gender,,2025.1.1,60.733158554698555,2025-09-26 09h37.10.866297 +0700,
None,None,None,วรรณา,men.png,วรรณา,10,67,117,13,13,0,,,,k,1.1059082000283524,None,,,,,0,13,13,17,50.377490299986675,,,,,,,,,,,,,,,,,,,,,,,,,50.366060800035484,50.377490299986675,50.377490299986675,50.377490299986675,50.377490299986675,50.377490299986675,50.377490299986675,50.63964599999599,50.68929939996451,51.48840969998855,k,1.1059082000283524,None,,,test1,003,2025-09-26_09h36.58.434,Priming_gender,,2025.1.1,60.733158554698555,2025-09-26 09h37.10.866297 +0700,
ชัยวัฒน์,ศิริพร,None,ชัยวัฒน์,men.png,ชัยวัฒน์,10,54,104,14,14,0,,,,k,0.7705346000147983,None,,,,,0,14,14,4,51.52920260000974,,,,,,,,,,,,,,,,,,,,,,,,,51.51723120000679,51.52920260000974,51.52920260000974,51.52920260000974,51.52920260000974,51.52920260000974,51.52920260000974,51.789816400036216,51.83812730002683,52.30604299996048,k,0.7705346000147983,None,,,test1,003,2025-09-26_09h36.58.434,Priming_gender,,2025.1.1,60.733158554698555,2025-09-26 09h37.10.866297 +0700,
None,None,None,อาภรณ์,men.png,อาภรณ์,10,65,115,15,15,0,,,,k,0.7871735000517219,None,,,,,0,15,15,15,52.34397050004918,,,,,,,,,,,,,,,,,,,,,,,,,52.33308799995575,52.34397050004918,52.34397050004918,52.34397050004918,52.34397050004918,52.34397050004918,52.34397050004918,52.62192810000852,52.65530330000911,53.138310500071384,k,0.7871735000517219,None,,,test1,003,2025-09-26_09h36.58.434,Priming_gender,,2025.1.1,60.733158554698555,2025-09-26 09h37.10.866297 +0700,
None,None,None,None,women.png,กาญจนา,11,60,130,16,16,0,,,,j,1.260795300011523,None,,,,,0,16,16,30,53.18242149997968,,,,,,,,,,,,,,,,,,,,,,,,,53.17047570005525,53.18242149997968,53.18242149997968,53.18242149997968,53.18242149997968,53.18242149997968,53.18242149997968,53.43819839996286,53.48817030002829,54.455118100042455,j,1.260795300011523,None,,,test1,003,2025-09-26_09h36.58.434,Priming_gender,,2025.1.1,60.733158554698555,2025-09-26 09h37.10.866297 +0700,
ภูมิพัฒน์,จิตติมา,None,ภูมิพัฒน์,men.png,ภูมิพัฒน์,10,56,106,17,17,0,,,,k,0.9567098000552505,None,,,,,0,17,17,6,54.49458349996712,,,,,,,,,,,,,,,,,,,,,,,,,54.48251290002372,54.49458349996712,54.49458349996712,54.49458349996712,54.49458349996712,54.49458349996712,54.49458349996712,54.75620100006927,54.80497309996281,55.45494059997145,k,0.9567098000552505,None,,,test1,003,2025-09-26_09h36.58.434,Priming_gender,,2025.1.1,60.733158554698555,2025-09-26 09h37.10.866297 +0700,
None,None,None,None,women.png,จิตติมา,11,66,136,18,18,0,,,,j,0.9176326999440789,None,,,,,0,18,18,36,55.493488600011915,,,,,,,,,,,,,,,,,,,,,,,,,55.482504799962044,55.493488600011915,55.493488600011915,55.493488600011915,55.493488600011915,55.493488600011915,55.493488600011915,55.7546677000355,55.804662300040945,56.42162909999024,j,0.9176326999440789,None,,,test1,003,2025-09-26_09h36.58.434,Priming_gender,,2025.1.1,60.733158554698555,2025-09-26 09h37.10.866297 +0700,
None,None,None,None,women.png,ศิริพร,11,64,134,19,19,0,,,,j,0.8801578999264166,None,,,,,0,19,19,34,56.458741200040095,,,,,,,,,,,,,,,,,,,,,,,,,56.448843399994075,56.458741200040095,56.458741200040095,56.458741200040095,56.458741200040095,56.458741200040095,56.458741200040095,56.73805240006186,56.77111930004321,57.354555499972776,j,0.8801578999264166,None,,,test1,003,2025-09-26_09h36.58.434,Priming_gender,,2025.1.1,60.733158554698555,2025-09-26 09h37.10.866297 +0700,
None,None,None,กาญจนา,men.png,กาญจนา,10,60,110,20,20,0,,,,k,1.1785091999918222,None,,,,,0,20,20,10,57.39319620002061,,,,,,,,,,,,,,,,,,,,,,,,,57.38239839999005,57.39319620002061,57.39319620002061,57.39319620002061,57.39319620002061,57.39319620002061,57.39319620002061,57.654887399985455,57.70437689998653,58.58844490000047,k,1.1785091999918222,None,,,test1,003,2025-09-26_09h36.58.434,Priming_gender,,2025.1.1,60.733158554698555,2025-09-26 09h37.10.866297 +0700,
None,None,None,None,women.png,วรรณา,11,67,137,21,21,0,,,,j,1.8620820000069216,None,,,,,0,21,21,37,58.6284949000692,,,,,,,,,,,,,,,,,,,,,,,,,58.61762490007095,58.6284949000692,58.6284949000692,58.6284949000692,58.6284949000692,58.6284949000692,58.6284949000692,58.88791749998927,58.939307200023904,60.504796999972314,j,1.8620820000069216,None,,,test1,003,2025-09-26_09h36.58.434,Priming_gender,,2025.1.1,60.733158554698555,2025-09-26 09h37.10.866297 +0700,
None,None,None,จิตติมา,men.png,จิตติมา,10,66,116,22,22,0,,,,k,1.4633096000179648,None,,,,,0,22,22,16,60.54785269999411,,,,,,,,,,,,,,,,,,,,,,,,,60.53480010002386,60.54785269999411,60.54785269999411,60.54785269999411,60.54785269999411,60.54785269999411,60.54785269999411,60.804528500069864,60.8547424999997,62.02185190003365,k,1.4633096000179648,None,,,test1,003,2025-09-26_09h36.58.434,Priming_gender,,2025.1.1,60.733158554698555,2025-09-26 09h37.10.866297 +0700,
อรรถพล,สุพัตรา,None,อรรถพล,men.png,อรรถพล,10,53,103,23,23,0,,,,k,1.9923966999631375,None,,,,,0,23,23,3,62.06638870004099,,,,,,,,,,,,,,,,,,,,,,,,,62.05420090002008,62.06638870004099,62.06638870004099,62.06638870004099,62.06638870004099,62.06638870004099,62.06638870004099,62.3394835999934,62.37114770000335,64.07142729999032,k,1.9923966999631375,None,,,test1,003,2025-09-26_09h36.58.434,Priming_gender,,2025.1.1,60.733158554698555,2025-09-26 09h37.10.866297 +0700,
None,None,None,None,women.png,นเรศ,11,51,121,24,24,0,,,,j,1.1213417000835761,None,,,,,0,24,24,21,64.121590499999,,,,,,,,,,,,,,,,,,,,,,,,,64.10718240006827,64.121590499999,64.121590499999,64.121590499999,64.121590499999,64.121590499999,64.121590499999,64.3723663999699,64.4213485000655,65.25392699998338,j,1.1213417000835761,None,,,test1,003,2025-09-26_09h36.58.434,Priming_gender,,2025.1.1,60.733158554698555,2025-09-26 09h37.10.866297 +0700,
None,None,None,None,women.png,ธนพล,11,52,122,25,25,0,,,,j,1.340311300009489,None,,,,,0,25,25,22,65.29547470004763,,,,,,,,,,,,,,,,,,,,,,,,,65.2839712999994,65.29547470004763,65.29547470004763,65.29547470004763,65.29547470004763,65.29547470004763,65.29547470004763,65.55441950005479,65.60482160001993,66.63821939995978,j,1.340311300009489,None,,,test1,003,2025-09-26_09h36.58.434,Priming_gender,,2025.1.1,60.733158554698555,2025-09-26 09h37.10.866297 +0700,
นเรศ,พิมพ์ใจ,women.png,นเรศ,men.png,นเรศ,10,51,101,26,26,0,,,,k,0.8655108000384644,None,,,,,0,26,26,1,66.68172039999627,,,,,,,,,,,,,,,,,,,,,,,,,66.6682733000489,66.68172039999627,66.68172039999627,66.68172039999627,66.68172039999627,66.68172039999627,66.68172039999627,66.93841219996102,66.98822850000579,67.55645849998109,k,0.8655108000384644,None,,,test1,003,2025-09-26_09h36.58.434,Priming_gender,,2025.1.1,60.733158554698555,2025-09-26 09h37.10.866297 +0700,
ธนพล,วาสนา,None,ธนพล,men.png,ธนพล,10,52,102,27,27,0,,,,k,0.7470499000046402,None,,,,,0,27,27,2,67.59956200001761,,,,,,,,,,,,,,,,,,,,,,,,,67.5884029000299,67.59956200001761,67.59956200001761,67.59956200001761,67.59956200001761,67.59956200001761,67.59956200001761,67.87128059996758,67.90417340002023,68.35418500006199,k,0.7470499000046402,None,,,test1,003,2025-09-26_09h36.58.434,Priming_gender,,2025.1.1,60.733158554698555,2025-09-26 09h37.10.866297 +0700,
None,None,None,None,women.png,อรรถพล,11,53,123,28,28,0,,,,j,1.6301569000352174,None,,,,,0,28,28,23,68.39688859996386,,,,,,,,,,,,,,,,,,,,,,,,,68.38475179998204,68.39688859996386,68.39688859996386,68.39688859996386,68.39688859996386,68.39688859996386,68.39688859996386,68.65394480002578,68.70531620003749,70.0370067000622,j,1.6301569000352174,None,,,test1,003,2025-09-26_09h36.58.434,Priming_gender,,2025.1.1,60.733158554698555,2025-09-26 09h37.10.866297 +0700,
None,None,None,วาสนา,men.png,วาสนา,10,62,112,29,29,0,,,,k,1.4375130999833345,None,,,,,0,29,29,12,70.07705780002289,,,,,,,,,,,,,,,,,,,,,,,,,70.06579759996384,70.07705780002289,70.07705780002289,70.07705780002289,70.07705780002289,70.07705780002289,70.07705780002289,70.33793929999229,70.38740290002897,71.52046310005244,k,1.4375130999833345,None,,,test1,003,2025-09-26_09h36.58.434,Priming_gender,,2025.1.1,60.733158554698555,2025-09-26 09h37.10.866297 +0700,
None,None,None,None,women.png,พิสิฐ,11,59,129,30,30,0,,,,k,1.4883808000013232,None,,,,,0,30,30,29,71.56287939997856,,,,,,,,,,,,,,,,,,,,,,,,,71.55105770006776,71.56287939997856,71.56287939997856,71.56287939997856,71.56287939997856,71.56287939997856,71.56287939997856,71.82001580006909,71.87087480002083,73.05393020005431,k,1.4883808000013232,None,,,test1,003,2025-09-26_09h36.58.434,Priming_gender,,2025.1.1,60.733158554698555,2025-09-26 09h37.10.866297 +0700,
None,None,None,None,women.png,ศักดิ์สิทธิ์,11,58,128,31,31,0,,,,j,2.753887299913913,None,,,,,0,31,31,28,73.09713610005565,,,,,,,,,,,,,,,,,,,,,,,,,73.08528440003283,73.09713610005565,73.09713610005565,73.09713610005565,73.09713610005565,73.09713610005565,73.09713610005565,73.36975469999015,73.40295929997228,75.85328579996713,j,2.753887299913913,None,,,test1,003,2025-09-26_09h36.58.434,Priming_gender,,2025.1.1,60.733158554698555,2025-09-26 09h37.10.866297 +0700,
None,None,None,None,women.png,วรพล,11,57,127,32,32,0,,,,j,1.3340178000507876,None,,,,,0,32,32,27,75.89288850000594,,,,,,,,,,,,,,,,,,,,,,,,,75.88136140001006,75.89288850000594,75.89288850000594,75.89288850000594,75.89288850000594,75.89288850000594,75.89288850000594,76.15512999997009,76.20437319995835,77.23791450005956,j,1.3340178000507876,None,,,test1,003,2025-09-26_09h36.58.434,Priming_gender,,2025.1.1,60.733158554698555,2025-09-26 09h37.10.866297 +0700,
None,None,None,None,women.png,กฤษณะ,11,50,120,33,33,0,,,,j,0.6758469000924379,None,,,,,0,33,33,20,77.28684049996082,,,,,,,,,,,,,,,,,,,,,,,,,77.2743785000639,77.28684049996082,77.28684049996082,77.28684049996082,77.28684049996082,77.28684049996082,77.28684049996082,77.53671450004913,77.5867441999726,77.97050339996349,j,0.6758469000924379,None,,,test1,003,2025-09-26_09h36.58.434,Priming_gender,,2025.1.1,60.733158554698555,2025-09-26 09h37.10.866297 +0700,
None,None,None,ปัทมา,men.png,ปัทมา,10,69,119,34,34,0,,,,k,1.007234700024128,None,,,,,0,34,34,19,78.01217210001778,,,,,,,,,,,,,,,,,,,,,,,,,78.00111700000707,78.01217210001778,78.01217210001778,78.01217210001778,78.01217210001778,78.01217210001778,78.01217210001778,78.28612589999102,78.31979450001381,79.02088920003735,k,1.007234700024128,None,,,test1,003,2025-09-26_09h36.58.434,Priming_gender,,2025.1.1,60.733158554698555,2025-09-26 09h37.10.866297 +0700,
None,None,None,ศิริพร,men.png,ศิริพร,10,64,114,35,35,0,,,,k,1.238296200055629,None,,,,,0,35,35,14,79.06133170006797,,,,,,,,,,,,,,,,,,,,,,,,,79.0499165999936,79.06133170006797,79.06133170006797,79.06133170006797,79.06133170006797,79.06133170006797,79.06133170006797,79.33672470005695,79.37057849997655,80.30396749998908,k,1.238296200055629,None,,,test1,003,2025-09-26_09h36.58.434,Priming_gender,,2025.1.1,60.733158554698555,2025-09-26 09h37.10.866297 +0700,
None,None,None,สุพัตรา,men.png,สุพัตรา,10,63,113,36,36,0,,,,k,1.84282479993999,None,,,,,0,36,36,13,80.34413950005546,,,,,,,,,,,,,,,,,,,,,,,,,80.33150680002291,80.34413950005546,80.34413950005546,80.34413950005546,80.34413950005546,80.34413950005546,80.34413950005546,80.60347400000319,80.65333140001167,82.20308350003324,k,1.84282479993999,None,,,test1,003,2025-09-26_09h36.58.434,Priming_gender,,2025.1.1,60.733158554698555,2025-09-26 09h37.10.866297 +0700,
กฤษณะ,กาญจนา,men.png,กฤษณะ,men.png,กฤษณะ,10,50,100,37,37,0,,,,k,1.176205400028266,None,,,,,0,37,37,0,82.24347890005447,,,,,,,,,,,,,,,,,,,,,,,,,82.23168379999697,82.24347890005447,82.24347890005447,82.24347890005447,82.24347890005447,82.24347890005447,82.24347890005447,82.50305359996855,82.55363640002906,83.43676249997225,k,1.176205400028266,None,,,test1,003,2025-09-26_09h36.58.434,Priming_gender,,2025.1.1,60.733158554698555,2025-09-26 09h37.10.866297 +0700,
None,None,None,None,women.png,พิมพ์ใจ,11,61,131,38,38,0,,,,j,0.8970588999800384,None,,,,,0,38,38,31,83.48208370001521,,,,,,,,,,,,,,,,,,,,,,,,,83.46936480002478,83.48208370001521,83.48208370001521,83.48208370001521,83.48208370001521,83.48208370001521,83.48208370001521,83.73806240002159,83.78823179996107,84.38802379998378,j,0.8970588999800384,None,,,test1,003,2025-09-26_09h36.58.434,Priming_gender,,2025.1.1,60.733158554698555,2025-09-26 09h37.10.866297 +0700,
None,None,None,พิมพ์ใจ,men.png,พิมพ์ใจ,10,61,111,39,39,0,,,,k,1.054581500007771,None,,,,,0,39,39,11,84.42903470003512,,,,,,,,,,,,,,,,,,,,,,,,,84.41699249995872,84.42903470003512,84.42903470003512,84.42903470003512,84.42903470003512,84.42903470003512,84.42903470003512,84.70443659997545,84.73782649997156,85.48647959996015,k,1.054581500007771,None,,,test1,003,2025-09-26_09h36.58.434,Priming_gender,,2025.1.1,60.733158554698555,2025-09-26 09h37.10.866297 +0700,
,,,,,,,,,,,,,,,,,,,,,,,,,,,,,,,,,,,,,,,,,,,,,,,,,,,,,,,,,,,,,,,,85.59078349999618,85.5909832000034,test1,003,2025-09-26_09h36.58.434,Priming_gender,,2025.1.1,60.733158554698555,2025-09-26 09h37.10.866297 +0700,
