Male,Female,Image,Name,ImagePriming,NamePriming,ImageTrig,NameTrig,Trig,thisN,thisTrialN,thisRepN,key_resp.keys,key_resp.rt,key_resp.duration,key_resp_3.keys,key_resp_3.rt,key_resp_3.duration,training.thisRepN,training.thisTrialN,training.thisN,training.thisIndex,priming.thisRepN,priming.thisTrialN,priming.thisN,priming.thisIndex,thisRow.t,notes,training_Instruction.started,instruction_slide.started,instruction_continue.started,training_Instruction.stopped,instruction_continue.keys,instruction_continue.rt,instruction_continue.duration,training_block.started,MAN.started,WOMAN.started,pic.started,key_resp.started,training_block.stopped,training.key_resp.keys,training.key_resp.rt,training.key_resp.duration,priming_instruction.started,instruction_slide_2.started,instruction_continue_2.started,priming_instruction.stopped,instruction_continue_2.keys,instruction_continue_2.rt,instruction_continue_2.duration,priming_block.started,MAN_3.started,MAN_3_desc.started,WOMAN_3.started,WOMAN_3_desc.started,name_2.started,key_resp_3.started,pic_2.started,name_2.stopped,priming_block.stopped,priming.key_resp_3.keys,priming.key_resp_3.rt,priming.key_resp_3.duration,Ending.started,Ending.stopped,participant,session,date,expName,expVersion,psychopyVersion,frameRate,expStart,
,,,,,,,,,,,,,,,,,,,,,,,,,,,,0.008513999986462295,0.026890299981459975,0.026890299981459975,0.9811830000253394,space,0.9342906998936087,None,,,,,,,,,,,,,,,,,,,,,,,,,,,,,,,,test1,004,2025-09-26_09h38.55.738,Priming_gender,,2025.1.1,60.228083751062506,2025-09-26 09h39.09.309264 +0700,
กฤษณะ,กาญจนา,men.png,กฤษณะ,men.png,กฤษณะ,10,50,100,0,0,0,k,0.8249854000750929,None,,,,0,0,0,0,,,,,1.0321612000698224,,,,,,,,,1.0228861999930814,1.0321612000698224,1.0321612000698224,1.0321612000698224,1.0321612000698224,1.858522400027141,k,0.8249854000750929,None,,,,,,,,,,,,,,,,,,,,,,,test1,004,2025-09-26_09h38.55.738,Priming_gender,,2025.1.1,60.228083751062506,2025-09-26 09h39.09.309264 +0700,
นเรศ,พิมพ์ใจ,women.png,นเรศ,men.png,นเรศ,10,51,101,1,1,0,j,0.5216207000194117,None,,,,0,1,1,1,,,,,1.894556500017643,,,,,,,,,1.8857608999824151,1.894556500017643,1.894556500017643,1.894556500017643,1.894556500017643,2.42491699999664,j,0.5216207000194117,None,,,,,,,,,,,,,,,,,,,,,,,test1,004,2025-09-26_09h38.55.738,Priming_gender,,2025.1.1,60.228083751062506,2025-09-26 09h39.09.309264 +0700,
นเรศ,พิมพ์ใจ,women.png,นเรศ,men.png,นเรศ,10,51,101,2,2,1,j,0.641228299937211,None,,,,1,2,2,1,,,,,2.4633971999865025,,,,,,,,,2.454723700066097,2.4633971999865025,2.4633971999865025,2.4633971999865025,2.4633971999865025,3.108003200031817,j,0.641228299937211,None,,,,,,,,,,,,,,,,,,,,,,,test1,004,2025-09-26_09h38.55.738,Priming_gender,,2025.1.1,60.228083751062506,2025-09-26 09h39.09.309264 +0700,
นเรศ,พิมพ์ใจ,women.png,นเรศ,men.png,นเรศ,10,51,101,3,3,2,j,0.8845671999733895,None,,,,2,3,3,1,,,,,3.147960599977523,,,,,,,,,3.1395255000097677,3.147960599977523,3.147960599977523,3.147960599977523,3.147960599977523,4.041155699989758,j,0.8845671999733895,None,,,,,,,,,,,,,,,,,,,,,,,test1,004,2025-09-26_09h38.55.738,Priming_gender,,2025.1.1,60.228083751062506,2025-09-26 09h39.09.309264 +0700,
นเรศ,พิมพ์ใจ,women.png,นเรศ,men.png,นเรศ,10,51,101,4,4,3,j,0.899056899943389,None,,,,3,4,4,1,,,,,4.077404199982993,,,,,,,,,4.068984000012279,4.077404199982993,4.077404199982993,4.077404199982993,4.077404199982993,4.99101110000629,j,0.899056899943389,None,,,,,,,,,,,,,,,,,,,,,,,test1,004,2025-09-26_09h38.55.738,Priming_gender,,2025.1.1,60.228083751062506,2025-09-26 09h39.09.309264 +0700,
นเรศ,พิมพ์ใจ,women.png,นเรศ,men.png,นเรศ,10,51,101,5,5,4,j,1.018537100055255,None,,,,4,5,5,1,,,,,5.03021560003981,,,,,,,,,5.021558100008406,5.03021560003981,5.03021560003981,5.03021560003981,5.03021560003981,6.059660600032657,j,1.018537100055255,None,,,,,,,,,,,,,,,,,,,,,,,test1,004,2025-09-26_09h38.55.738,Priming_gender,,2025.1.1,60.228083751062506,2025-09-26 09h39.09.309264 +0700,
กฤษณะ,กาญจนา,men.png,กฤษณะ,men.png,กฤษณะ,10,50,100,6,6,1,k,0.878534899908118,None,,,,1,6,6,0,,,,,6.097604500013404,,,,,,,,,6.088055200059898,6.097604500013404,6.097604500013404,6.097604500013404,6.097604500013404,6.992746400064789,k,0.878534899908118,None,,,,,,,,,,,,,,,,,,,,,,,test1,004,2025-09-26_09h38.55.738,Priming_gender,,2025.1.1,60.228083751062506,2025-09-26 09h39.09.309264 +0700,
นเรศ,พิมพ์ใจ,women.png,นเรศ,men.png,นเรศ,10,51,101,7,7,5,j,0.7610616000602022,None,,,,5,7,7,1,,,,,7.031084400019608,,,,,,,,,7.022504199994728,7.031084400019608,7.031084400019608,7.031084400019608,7.031084400019608,7.807679200079292,j,0.7610616000602022,None,,,,,,,,,,,,,,,,,,,,,,,test1,004,2025-09-26_09h38.55.738,Priming_gender,,2025.1.1,60.228083751062506,2025-09-26 09h39.09.309264 +0700,
กฤษณะ,กาญจนา,men.png,กฤษณะ,men.png,กฤษณะ,10,50,100,8,8,2,k,0.5725083999568596,None,,,,2,8,8,0,,,,,7.843731100088917,,,,,,,,,7.836760999984108,7.843731100088917,7.843731100088917,7.843731100088917,7.843731100088917,8.42389269999694,k,0.5725083999568596,None,,,,,,,,,,,,,,,,,,,,,,,test1,004,2025-09-26_09h38.55.738,Priming_gender,,2025.1.1,60.228083751062506,2025-09-26 09h39.09.309264 +0700,
นเรศ,พิมพ์ใจ,women.png,นเรศ,men.png,นเรศ,10,51,101,9,9,6,j,0.4986321999458596,None,,,,6,9,9,1,,,,,8.461822199984454,,,,,,,,,8.453821600065567,8.461822199984454,8.461822199984454,8.461822199984454,8.461822199984454,8.97396029997617,j,0.4986321999458596,None,,,,,,,,,,,,,,,,,,,,,,,test1,004,2025-09-26_09h38.55.738,Priming_gender,,2025.1.1,60.228083751062506,2025-09-26 09h39.09.309264 +0700,
กฤษณะ,กาญจนา,men.png,กฤษณะ,men.png,กฤษณะ,10,50,100,10,10,3,k,0.5238839000230655,None,,,,3,10,10,0,,,,,9.012978499988094,,,,,,,,,9.004488800070249,9.012978499988094,9.012978499988094,9.012978499988094,9.012978499988094,9.540724800084718,k,0.5238839000230655,None,,,,,,,,,,,,,,,,,,,,,,,test1,004,2025-09-26_09h38.55.738,Priming_gender,,2025.1.1,60.228083751062506,2025-09-26 09h39.09.309264 +0700,
กฤษณะ,กาญจนา,men.png,กฤษณะ,men.png,กฤษณะ,10,50,100,11,11,4,k,0.7883790999185294,None,,,,4,11,11,0,,,,,9.580367800081149,,,,,,,,,9.571932399994694,9.580367800081149,9.580367800081149,9.580367800081149,9.580367800081149,10.374223100021482,k,0.7883790999185294,None,,,,,,,,,,,,,,,,,,,,,,,test1,004,2025-09-26_09h38.55.738,Priming_gender,,2025.1.1,60.228083751062506,2025-09-26 09h39.09.309264 +0700,
นเรศ,พิมพ์ใจ,women.png,นเรศ,men.png,นเรศ,10,51,101,12,12,7,j,0.7077938000438735,None,,,,7,12,12,1,,,,,10.413281199987978,,,,,,,,,10.404020700021647,10.413281199987978,10.413281199987978,10.413281199987978,10.413281199987978,11.125391700072214,j,0.7077938000438735,None,,,,,,,,,,,,,,,,,,,,,,,test1,004,2025-09-26_09h38.55.738,Priming_gender,,2025.1.1,60.228083751062506,2025-09-26 09h39.09.309264 +0700,
นเรศ,พิมพ์ใจ,women.png,นเรศ,men.png,นเรศ,10,51,101,13,13,8,j,0.5538341000210494,None,,,,8,13,13,1,,,,,11.174493300030008,,,,,,,,,11.166585900005884,11.174493300030008,11.174493300030008,11.174493300030008,11.174493300030008,11.741506700054742,j,0.5538341000210494,None,,,,,,,,,,,,,,,,,,,,,,,test1,004,2025-09-26_09h38.55.738,Priming_gender,,2025.1.1,60.228083751062506,2025-09-26 09h39.09.309264 +0700,
นเรศ,พิมพ์ใจ,women.png,นเรศ,men.png,นเรศ,10,51,101,14,14,9,j,0.9419757999712601,None,,,,9,14,14,1,,,,,11.778662899974734,,,,,,,,,11.769717700080946,11.778662899974734,11.778662899974734,11.778662899974734,11.778662899974734,12.723745000083,j,0.9419757999712601,None,,,,,,,,,,,,,,,,,,,,,,,test1,004,2025-09-26_09h38.55.738,Priming_gender,,2025.1.1,60.228083751062506,2025-09-26 09h39.09.309264 +0700,
กฤษณะ,กาญจนา,men.png,กฤษณะ,men.png,กฤษณะ,10,50,100,15,15,5,k,0.6945878999540582,None,,,,5,15,15,0,,,,,12.761961000040174,,,,,,,,,12.753810700029135,12.761961000040174,12.761961000040174,12.761961000040174,12.761961000040174,13.457930400036275,k,0.6945878999540582,None,,,,,,,,,,,,,,,,,,,,,,,test1,004,2025-09-26_09h38.55.738,Priming_gender,,2025.1.1,60.228083751062506,2025-09-26 09h39.09.309264 +0700,
กฤษณะ,กาญจนา,men.png,กฤษณะ,men.png,กฤษณะ,10,50,100,16,16,6,k,0.5687920999480411,None,,,,6,16,16,0,,,,,13.495822600089014,,,,,,,,,13.48748890007846,13.495822600089014,13.495822600089014,13.495822600089014,13.495822600089014,14.073837000061758,k,0.5687920999480411,None,,,,,,,,,,,,,,,,,,,,,,,test1,004,2025-09-26_09h38.55.738,Priming_gender,,2025.1.1,60.228083751062506,2025-09-26 09h39.09.309264 +0700,
กฤษณะ,กาญจนา,men.png,กฤษณะ,men.png,กฤษณะ,10,50,100,17,17,7,k,0.38295380002819,None,,,,7,17,17,0,,,,,14.113136900006793,,,,,,,,,14.104121200041845,14.113136900006793,14.113136900006793,14.113136900006793,14.113136900006793,14.507293400005437,k,0.38295380002819,None,,,,,,,,,,,,,,,,,,,,,,,test1,004,2025-09-26_09h38.55.738,Priming_gender,,2025.1.1,60.228083751062506,2025-09-26 09h39.09.309264 +0700,
กฤษณะ,กาญจนา,men.png,กฤษณะ,men.png,กฤษณะ,10,50,100,18,18,8,k,0.3342655999585986,None,,,,8,18,18,0,,,,,14.546242900076322,,,,,,,,,14.537773200077936,14.546242900076322,14.546242900076322,14.546242900076322,14.546242900076322,14.891288800048642,k,0.3342655999585986,None,,,,,,,,,,,,,,,,,,,,,,,test1,004,2025-09-26_09h38.55.738,Priming_gender,,2025.1.1,60.228083751062506,2025-09-26 09h39.09.309264 +0700,
นเรศ,พิมพ์ใจ,women.png,นเรศ,men.png,นเรศ,10,51,101,19,19,10,j,0.5735618000617251,None,,,,10,19,19,1,,,,,14.931294500012882,,,,,,,,,14.923322500078939,14.931294500012882,14.931294500012882,14.931294500012882,14.931294500012882,15.508518100017682,j,0.5735618000617251,None,,,,,,,,,,,,,,,,,,,,,,,test1,004,2025-09-26_09h38.55.738,Priming_gender,,2025.1.1,60.228083751062506,2025-09-26 09h39.09.309264 +0700,
นเรศ,พิมพ์ใจ,women.png,นเรศ,men.png,นเรศ,10,51,101,20,20,11,j,0.29516089998651296,None,,,,11,20,20,1,,,,,15.545541000086814,,,,,,,,,15.537163399974816,15.545541000086814,15.545541000086814,15.545541000086814,15.545541000086814,15.841446200036444,j,0.29516089998651296,None,,,,,,,,,,,,,,,,,,,,,,,test1,004,2025-09-26_09h38.55.738,Priming_gender,,2025.1.1,60.228083751062506,2025-09-26 09h39.09.309264 +0700,
กฤษณะ,กาญจนา,men.png,กฤษณะ,men.png,กฤษณะ,10,50,100,21,21,9,k,0.5400578998960555,None,,,,9,21,21,0,,,,,15.875946399988607,,,,,,,,,15.868124500033446,15.875946399988607,15.875946399988607,15.875946399988607,15.875946399988607,16.42375020007603,k,0.5400578998960555,None,,,,,,,,,,,,,,,,,,,,,,,test1,004,2025-09-26_09h38.55.738,Priming_gender,,2025.1.1,60.228083751062506,2025-09-26 09h39.09.309264 +0700,
นเรศ,พิมพ์ใจ,women.png,นเรศ,men.png,นเรศ,10,51,101,22,22,12,j,0.5177258000476286,None,,,,12,22,22,1,,,,,16.45823280001059,,,,,,,,,16.450916000059806,16.45823280001059,16.45823280001059,16.45823280001059,16.45823280001059,16.99043560004793,j,0.5177258000476286,None,,,,,,,,,,,,,,,,,,,,,,,test1,004,2025-09-26_09h38.55.738,Priming_gender,,2025.1.1,60.228083751062506,2025-09-26 09h39.09.309264 +0700,
กฤษณะ,กาญจนา,men.png,กฤษณะ,men.png,กฤษณะ,10,50,100,23,23,10,k,0.46292179997544736,None,,,,10,23,23,0,,,,,17.02586010005325,,,,,,,,,17.018461500061676,17.02586010005325,17.02586010005325,17.02586010005325,17.02586010005325,17.490772400051355,k,0.46292179997544736,None,,,,,,,,,,,,,,,,,,,,,,,test1,004,2025-09-26_09h38.55.738,Priming_gender,,2025.1.1,60.228083751062506,2025-09-26 09h39.09.309264 +0700,
นเรศ,พิมพ์ใจ,women.png,นเรศ,men.png,นเรศ,10,51,101,24,24,13,j,0.45823569991625845,None,,,,13,24,24,1,,,,,17.525921900058165,,,,,,,,,17.518798100063577,17.525921900058165,17.525921900058165,17.525921900058165,17.525921900058165,17.990310600027442,j,0.45823569991625845,None,,,,,,,,,,,,,,,,,,,,,,,test1,004,2025-09-26_09h38.55.738,Priming_gender,,2025.1.1,60.228083751062506,2025-09-26 09h39.09.309264 +0700,
กฤษณะ,กาญจนา,men.png,กฤษณะ,men.png,กฤษณะ,10,50,100,25,25,11,k,0.4976471000118181,None,,,,11,25,25,0,,,,,18.03052819997538,,,,,,,,,18.0207483000122,18.03052819997538,18.03052819997538,18.03052819997538,18.03052819997538,18.54012280004099,k,0.4976471000118181,None,,,,,,,,,,,,,,,,,,,,,,,test1,004,2025-09-26_09h38.55.738,Priming_gender,,2025.1.1,60.228083751062506,2025-09-26 09h39.09.309264 +0700,
นเรศ,พิมพ์ใจ,women.png,นเรศ,men.png,นเรศ,10,51,101,26,26,14,j,0.47715579997748137,None,,,,14,26,26,1,,,,,18.579324700054713,,,,,,,,,18.57057610002812,18.579324700054713,18.579324700054713,18.579324700054713,18.579324700054713,19.07382759999018,j,0.47715579997748137,None,,,,,,,,,,,,,,,,,,,,,,,test1,004,2025-09-26_09h38.55.738,Priming_gender,,2025.1.1,60.228083751062506,2025-09-26 09h39.09.309264 +0700,
นเรศ,พิมพ์ใจ,women.png,นเรศ,men.png,นเรศ,10,51,101,27,27,15,j,1.3392151999287307,None,,,,15,27,27,1,,,,,19.109637400018983,,,,,,,,,19.10270400007721,19.109637400018983,19.109637400018983,19.109637400018983,19.109637400018983,20.45672450005077,j,1.3392151999287307,None,,,,,,,,,,,,,,,,,,,,,,,test1,004,2025-09-26_09h38.55.738,Priming_gender,,2025.1.1,60.228083751062506,2025-09-26 09h39.09.309264 +0700,
นเรศ,พิมพ์ใจ,women.png,นเรศ,men.png,นเรศ,10,51,101,28,28,16,j,0.42024320003110915,None,,,,16,28,28,1,,,,,20.49236400006339,,,,,,,,,20.484518500044942,20.49236400006339,20.49236400006339,20.49236400006339,20.49236400006339,20.923479299992323,j,0.42024320003110915,None,,,,,,,,,,,,,,,,,,,,,,,test1,004,2025-09-26_09h38.55.738,Priming_gender,,2025.1.1,60.228083751062506,2025-09-26 09h39.09.309264 +0700,
กฤษณะ,กาญจนา,men.png,กฤษณะ,men.png,กฤษณะ,10,50,100,29,29,12,j,0.1267319000326097,None,,,,12,29,29,0,,,,,20.96208420000039,,,,,,,,,20.95395560003817,20.96208420000039,20.96208420000039,20.96208420000039,20.96208420000039,21.090240900055505,j,0.1267319000326097,None,,,,,,,,,,,,,,,,,,,,,,,test1,004,2025-09-26_09h38.55.738,Priming_gender,,2025.1.1,60.228083751062506,2025-09-26 09h39.09.309264 +0700,
นเรศ,พิมพ์ใจ,women.png,นเรศ,men.png,นเรศ,10,51,101,30,30,17,j,1.2219547999557108,None,,,,17,30,30,1,,,,,21.130913999979384,,,,,,,,,21.121120300027542,21.130913999979384,21.130913999979384,21.130913999979384,21.130913999979384,22.356951700057834,j,1.2219547999557108,None,,,,,,,,,,,,,,,,,,,,,,,test1,004,2025-09-26_09h38.55.738,Priming_gender,,2025.1.1,60.228083751062506,2025-09-26 09h39.09.309264 +0700,
กฤษณะ,กาญจนา,men.png,กฤษณะ,men.png,กฤษณะ,10,50,100,31,31,13,k,0.6642361000413075,None,,,,13,31,31,0,,,,,22.39243200002238,,,,,,,,,22.38414630002808,22.39243200002238,22.39243200002238,22.39243200002238,22.39243200002238,23.074174100067466,k,0.6642361000413075,None,,,,,,,,,,,,,,,,,,,,,,,test1,004,2025-09-26_09h38.55.738,Priming_gender,,2025.1.1,60.228083751062506,2025-09-26 09h39.09.309264 +0700,
กฤษณะ,กาญจนา,men.png,กฤษณะ,men.png,กฤษณะ,10,50,100,32,32,14,k,0.49033309996593744,None,,,,14,32,32,0,,,,,23.110498500056565,,,,,,,,,23.103455599979497,23.110498500056565,23.110498500056565,23.110498500056565,23.110498500056565,23.607155799982138,k,0.49033309996593744,None,,,,,,,,,,,,,,,,,,,,,,,test1,004,2025-09-26_09h38.55.738,Priming_gender,,2025.1.1,60.228083751062506,2025-09-26 09h39.09.309264 +0700,
นเรศ,พิมพ์ใจ,women.png,นเรศ,men.png,นเรศ,10,51,101,33,33,18,j,0.7097044000402093,None,,,,18,33,33,1,,,,,23.643894899985753,,,,,,,,,23.636497500003316,23.643894899985753,23.643894899985753,23.643894899985753,23.643894899985753,24.356964400038123,j,0.7097044000402093,None,,,,,,,,,,,,,,,,,,,,,,,test1,004,2025-09-26_09h38.55.738,Priming_gender,,2025.1.1,60.228083751062506,2025-09-26 09h39.09.309264 +0700,
กฤษณะ,กาญจนา,men.png,กฤษณะ,men.png,กฤษณะ,10,50,100,34,34,15,k,0.5501156999962404,None,,,,15,34,34,0,,,,,24.39415830001235,,,,,,,,,24.385382000007667,24.39415830001235,24.39415830001235,24.39415830001235,24.39415830001235,24.95690560003277,k,0.5501156999962404,None,,,,,,,,,,,,,,,,,,,,,,,test1,004,2025-09-26_09h38.55.738,Priming_gender,,2025.1.1,60.228083751062506,2025-09-26 09h39.09.309264 +0700,
กฤษณะ,กาญจนา,men.png,กฤษณะ,men.png,กฤษณะ,10,50,100,35,35,16,k,0.446162800071761,None,,,,16,35,35,0,,,,,24.99425029999111,,,,,,,,,24.98609210003633,24.99425029999111,24.99425029999111,24.99425029999111,24.99425029999111,25.44100570003502,k,0.446162800071761,None,,,,,,,,,,,,,,,,,,,,,,,test1,004,2025-09-26_09h38.55.738,Priming_gender,,2025.1.1,60.228083751062506,2025-09-26 09h39.09.309264 +0700,
กฤษณะ,กาญจนา,men.png,กฤษณะ,men.png,กฤษณะ,10,50,100,36,36,17,k,0.4090062000323087,None,,,,17,36,36,0,,,,,25.479194800020196,,,,,,,,,25.470679700025357,25.479194800020196,25.479194800020196,25.479194800020196,25.479194800020196,25.890199700021185,k,0.4090062000323087,None,,,,,,,,,,,,,,,,,,,,,,,test1,004,2025-09-26_09h38.55.738,Priming_gender,,2025.1.1,60.228083751062506,2025-09-26 09h39.09.309264 +0700,
นเรศ,พิมพ์ใจ,women.png,นเรศ,men.png,นเรศ,10,51,101,37,37,19,j,0.646550599951297,None,,,,19,37,37,1,,,,,25.929379499983042,,,,,,,,,25.920023399987258,25.929379499983042,25.929379499983042,25.929379499983042,25.929379499983042,26.58984380005859,j,0.646550599951297,None,,,,,,,,,,,,,,,,,,,,,,,test1,004,2025-09-26_09h38.55.738,Priming_gender,,2025.1.1,60.228083751062506,2025-09-26 09h39.09.309264 +0700,
กฤษณะ,กาญจนา,men.png,กฤษณะ,men.png,กฤษณะ,10,50,100,38,38,18,k,0.5423724999418482,None,,,,18,38,38,0,,,,,26.626470100018196,,,,,,,,,26.618071399978362,26.626470100018196,26.626470100018196,26.626470100018196,26.626470100018196,27.173069900018163,k,0.5423724999418482,None,,,,,,,,,,,,,,,,,,,,,,,test1,004,2025-09-26_09h38.55.738,Priming_gender,,2025.1.1,60.228083751062506,2025-09-26 09h39.09.309264 +0700,
กฤษณะ,กาญจนา,men.png,กฤษณะ,men.png,กฤษณะ,10,50,100,39,39,19,k,0.5181187000125647,None,,,,19,39,39,0,,,,,27.21037540002726,,,,,,,,,27.202454400015995,27.21037540002726,27.21037540002726,27.21037540002726,27.21037540002726,27.74044890003279,k,0.5181187000125647,None,,,,,,,,,,,,,,,,,,,,,,,test1,004,2025-09-26_09h38.55.738,Priming_gender,,2025.1.1,60.228083751062506,2025-09-26 09h39.09.309264 +0700,
,,,,,,,,,,,,,,,,,,,,,,,,,,,,,,,,,,,,,,,,,,,,27.740607100073248,27.75761029997375,27.75761029997375,28.942498399992473,space,1.170475299935788,None,,,,,,,,,,,,,,,,test1,004,2025-09-26_09h38.55.738,Priming_gender,,2025.1.1,60.228083751062506,2025-09-26 09h39.09.309264 +0700,
None,None,None,None,women.png,ศิริพร,11,64,134,0,0,0,,,,j,0.9258125999476761,None,,,,,0,0,0,34,29.011264799977653,,,,,,,,,,,,,,,,,,,,,,,,,28.992161400034092,29.011264799977653,29.011264799977653,29.011264799977653,29.011264799977653,29.011264799977653,29.011264799977653,29.256312699988484,29.32466160005424,29.93955020001158,j,0.9258125999476761,None,,,test1,004,2025-09-26_09h38.55.738,Priming_gender,,2025.1.1,60.228083751062506,2025-09-26 09h39.09.309264 +0700,
None,None,None,None,women.png,นเรศ,11,51,121,1,1,0,,,,k,0.812870999914594,None,,,,,0,1,1,21,29.987577100051567,,,,,,,,,,,,,,,,,,,,,,,,,29.97632070002146,29.987577100051567,29.987577100051567,29.987577100051567,29.987577100051567,29.987577100051567,29.987577100051567,30.239870300050825,30.290676600066945,30.80596929998137,k,0.812870999914594,None,,,test1,004,2025-09-26_09h38.55.738,Priming_gender,,2025.1.1,60.228083751062506,2025-09-26 09h39.09.309264 +0700,
None,None,None,None,women.png,ปริญญา,11,55,125,2,2,0,,,,j,1.0493055999977514,None,,,,,0,2,2,25,30.855123999994248,,,,,,,,,,,,,,,,,,,,,,,,,30.843686899985187,30.855123999994248,30.855123999994248,30.855123999994248,30.855123999994248,30.855123999994248,30.855123999994248,31.10605800000485,31.155314299976453,31.9068742999807,j,1.0493055999977514,None,,,test1,004,2025-09-26_09h38.55.738,Priming_gender,,2025.1.1,60.228083751062506,2025-09-26 09h39.09.309264 +0700,
None,None,None,None,women.png,จิตติมา,11,66,136,3,3,0,,,,j,0.8900158000178635,None,,,,,0,3,3,36,31.95801120006945,,,,,,,,,,,,,,,,,,,,,,,,,31.944854000001214,31.95801120006945,31.95801120006945,31.95801120006945,31.95801120006945,31.95801120006945,31.95801120006945,32.22210100002121,32.27207409997936,32.85624930006452,j,0.8900158000178635,None,,,test1,004,2025-09-26_09h38.55.738,Priming_gender,,2025.1.1,60.228083751062506,2025-09-26 09h39.09.309264 +0700,
None,None,None,None,women.png,อาภรณ์,11,65,135,4,4,0,,,,j,0.8997326999669895,None,,,,,0,4,4,35,32.90829220006708,,,,,,,,,,,,,,,,,,,,,,,,,32.89641729998402,32.90829220006708,32.90829220006708,32.90829220006708,32.90829220006708,32.90829220006708,32.90829220006708,33.17293720005546,33.22298010007944,33.82316090003587,j,0.8997326999669895,None,,,test1,004,2025-09-26_09h38.55.738,Priming_gender,,2025.1.1,60.228083751062506,2025-09-26 09h39.09.309264 +0700,
None,None,None,None,women.png,สุพัตรา,11,63,133,5,5,0,,,,j,2.402367700007744,None,,,,,0,5,5,33,33.86978359997738,,,,,,,,,,,,,,,,,,,,,,,,,33.85768870008178,33.86978359997738,33.86978359997738,33.86978359997738,33.86978359997738,33.86978359997738,33.86978359997738,34.122165900073014,34.1722410999937,36.289365399978124,j,2.402367700007744,None,,,test1,004,2025-09-26_09h38.55.738,Priming_gender,,2025.1.1,60.228083751062506,2025-09-26 09h39.09.309264 +0700,
None,None,None,วรรณา,men.png,วรรณา,10,67,117,6,6,0,,,,k,1.715250900015235,None,,,,,0,6,6,17,36.333066100021824,,,,,,,,,,,,,,,,,,,,,,,,,36.32165000005625,36.333066100021824,36.333066100021824,36.333066100021824,36.333066100021824,36.333066100021824,36.333066100021824,36.58915590005927,36.6405778999906,38.05536830006167,k,1.715250900015235,None,,,test1,004,2025-09-26_09h38.55.738,Priming_gender,,2025.1.1,60.228083751062506,2025-09-26 09h39.09.309264 +0700,
None,None,None,พิมพ์ใจ,men.png,พิมพ์ใจ,10,61,111,7,7,0,,,,k,0.8101922000059858,None,,,,,0,7,7,11,38.1015311999945,,,,,,,,,,,,,,,,,,,,,,,,,38.088619900052436,38.1015311999945,38.1015311999945,38.1015311999945,38.1015311999945,38.1015311999945,38.1015311999945,38.35573970002588,38.40534270007629,38.92219750001095,k,0.8101922000059858,None,,,test1,004,2025-09-26_09h38.55.738,Priming_gender,,2025.1.1,60.228083751062506,2025-09-26 09h39.09.309264 +0700,
None,None,None,None,women.png,กาญจนา,11,60,130,8,8,0,,,,j,1.4024308999069035,None,,,,,0,8,8,30,38.966273300000466,,,,,,,,,,,,,,,,,,,,,,,,,38.954819299979135,38.966273300000466,38.966273300000466,38.966273300000466,38.966273300000466,38.966273300000466,38.966273300000466,39.223191900062375,39.27204050007276,40.37255730002653,j,1.4024308999069035,None,,,test1,004,2025-09-26_09h38.55.738,Priming_gender,,2025.1.1,60.228083751062506,2025-09-26 09h39.09.309264 +0700,
None,None,None,จิตติมา,men.png,จิตติมา,10,66,116,9,9,0,,,,k,1.2676236000843346,None,,,,,0,9,9,16,40.412123600021005,,,,,,,,,,,,,,,,,,,,,,,,,40.4011311000213,40.412123600021005,40.412123600021005,40.412123600021005,40.412123600021005,40.412123600021005,40.412123600021005,40.67163230001461,40.72253490006551,41.68912019999698,k,1.2676236000843346,None,,,test1,004,2025-09-26_09h38.55.738,Priming_gender,,2025.1.1,60.228083751062506,2025-09-26 09h39.09.309264 +0700,
None,None,None,None,women.png,วาสนา,11,62,132,10,10,0,,,,j,2.269490099977702,None,,,,,0,10,10,32,41.73131870001089,,,,,,,,,,,,,,,,,,,,,,,,,41.718529500067234,41.73131870001089,41.73131870001089,41.73131870001089,41.73131870001089,41.73131870001089,41.73131870001089,41.988483800087124,42.03861050005071,44.00521299999673,j,2.269490099977702,None,,,test1,004,2025-09-26_09h38.55.738,Priming_gender,,2025.1.1,60.228083751062506,2025-09-26 09h39.09.309264 +0700,
None,None,None,None,women.png,ปัทมา,11,69,139,11,11,0,,,,j,0.748100099968724,None,,,,,0,11,11,39,44.05226680007763,,,,,,,,,,,,,,,,,,,,,,,,,44.03830150002614,44.05226680007763,44.05226680007763,44.05226680007763,44.05226680007763,44.05226680007763,44.05226680007763,44.30620870005805,44.35658330004662,44.80560510000214,j,0.748100099968724,None,,,test1,004,2025-09-26_09h38.55.738,Priming_gender,,2025.1.1,60.228083751062506,2025-09-26 09h39.09.309264 +0700,
พิสิฐ,ปัทมา,None,พิสิฐ,men.png,พิสิฐ,10,59,109,12,12,0,,,,k,0.8473714999854565,None,,,,,0,12,12,9,44.84892330004368,,,,,,,,,,,,,,,,,,,,,,,,,44.83798020007089,44.84892330004368,44.84892330004368,44.84892330004368,44.84892330004368,44.84892330004368,44.84892330004368,45.12250960001256,45.15612850000616,45.70561850001104,k,0.8473714999854565,None,,,test1,004,2025-09-26_09h38.55.738,Priming_gender,,2025.1.1,60.228083751062506,2025-09-26 09h39.09.309264 +0700,
ศักดิ์สิทธิ์,สุนิสา,None,ศักดิ์สิทธิ์,men.png,ศักดิ์สิทธิ์,10,58,108,13,13,0,,,,k,1.04782370000612,None,,,,,0,13,13,8,45.75220820005052,,,,,,,,,,,,,,,,,,,,,,,,,45.74067690002266,45.75220820005052,45.75220820005052,45.75220820005052,45.75220820005052,45.75220820005052,45.75220820005052,46.00667060003616,46.05501930008177,46.804968400043435,k,1.04782370000612,None,,,test1,004,2025-09-26_09h38.55.738,Priming_gender,,2025.1.1,60.228083751062506,2025-09-26 09h39.09.309264 +0700,
ภูมิพัฒน์,จิตติมา,None,ภูมิพัฒน์,men.png,ภูมิพัฒน์,10,56,106,14,14,0,,,,k,0.7159010999603197,None,,,,,0,14,14,6,46.85218280006666,,,,,,,,,,,,,,,,,,,,,,,,,46.83914380008355,46.85218280006666,46.85218280006666,46.85218280006666,46.85218280006666,46.85218280006666,46.85218280006666,47.10483339999337,47.155291000031866,47.57266070006881,k,0.7159010999603197,None,,,test1,004,2025-09-26_09h38.55.738,Priming_gender,,2025.1.1,60.228083751062506,2025-09-26 09h39.09.309264 +0700,
ธนพล,วาสนา,None,ธนพล,men.png,ธนพล,10,52,102,15,15,0,,,,k,0.7673494999762625,None,,,,,0,15,15,2,47.61666080006398,,,,,,,,,,,,,,,,,,,,,,,,,47.60524860001169,47.61666080006398,47.61666080006398,47.61666080006398,47.61666080006398,47.61666080006398,47.61666080006398,47.88846070005093,47.92184870003257,48.389139499980956,k,0.7673494999762625,None,,,test1,004,2025-09-26_09h38.55.738,Priming_gender,,2025.1.1,60.228083751062506,2025-09-26 09h39.09.309264 +0700,
None,None,None,None,women.png,สุนิสา,11,68,138,16,16,0,,,,j,1.3296105000190437,None,,,,,0,16,16,38,48.43042890005745,,,,,,,,,,,,,,,,,,,,,,,,,48.419138700002804,48.43042890005745,48.43042890005745,48.43042890005745,48.43042890005745,48.43042890005745,48.43042890005745,48.689754000050016,48.737959400052205,49.77240870008245,j,1.3296105000190437,None,,,test1,004,2025-09-26_09h38.55.738,Priming_gender,,2025.1.1,60.228083751062506,2025-09-26 09h39.09.309264 +0700,
อรรถพล,สุพัตรา,None,อรรถพล,men.png,อรรถพล,10,53,103,17,17,0,,,,k,0.9972598999738693,None,,,,,0,17,17,3,49.819975599995814,,,,,,,,,,,,,,,,,,,,,,,,,49.80550160002895,49.819975599995814,49.819975599995814,49.819975599995814,49.819975599995814,49.819975599995814,49.819975599995814,50.072757599991746,50.12334270006977,50.82177480007522,k,0.9972598999738693,None,,,test1,004,2025-09-26_09h38.55.738,Priming_gender,,2025.1.1,60.228083751062506,2025-09-26 09h39.09.309264 +0700,
None,None,None,ศิริพร,men.png,ศิริพร,10,64,114,18,18,0,,,,k,1.3779102000407875,None,,,,,0,18,18,14,50.86197189998347,,,,,,,,,,,,,,,,,,,,,,,,,50.85105210007168,50.86197189998347,50.86197189998347,50.86197189998347,50.86197189998347,50.86197189998347,50.86197189998347,51.12360060005449,51.17259420000482,52.255670199985616,k,1.3779102000407875,None,,,test1,004,2025-09-26_09h38.55.738,Priming_gender,,2025.1.1,60.228083751062506,2025-09-26 09h39.09.309264 +0700,
กฤษณะ,กาญจนา,men.png,กฤษณะ,men.png,กฤษณะ,10,50,100,19,19,0,,,,k,0.7201128000160679,None,,,,,0,19,19,0,52.30378539999947,,,,,,,,,,,,,,,,,,,,,,,,,52.291806400055066,52.30378539999947,52.30378539999947,52.30378539999947,52.30378539999947,52.30378539999947,52.30378539999947,52.57140870008152,52.60481819999404,53.038241900037974,k,0.7201128000160679,None,,,test1,004,2025-09-26_09h38.55.738,Priming_gender,,2025.1.1,60.228083751062506,2025-09-26 09h39.09.309264 +0700,
None,None,None,None,women.png,ธนพล,11,52,122,20,20,0,,,,j,2.170193800004199,None,,,,,0,20,20,22,53.07742240000516,,,,,,,,,,,,,,,,,,,,,,,,,53.065832299995236,53.07742240000516,53.07742240000516,53.07742240000516,53.07742240000516,53.07742240000516,53.07742240000516,53.338199499994516,53.388251100084744,55.25423890003003,j,2.170193800004199,None,,,test1,004,2025-09-26_09h38.55.738,Priming_gender,,2025.1.1,60.228083751062506,2025-09-26 09h39.09.309264 +0700,
None,None,None,None,women.png,อรรถพล,11,53,123,21,21,0,,,,j,1.0893597000977024,None,,,,,0,21,21,23,55.29434200003743,,,,,,,,,,,,,,,,,,,,,,,,,55.2818147999933,55.29434200003743,55.29434200003743,55.29434200003743,55.29434200003743,55.29434200003743,55.29434200003743,55.555836500017904,55.604894799995236,56.38828640000429,j,1.0893597000977024,None,,,test1,004,2025-09-26_09h38.55.738,Priming_gender,,2025.1.1,60.228083751062506,2025-09-26 09h39.09.309264 +0700,
วรพล,วรรณา,None,วรพล,men.png,วรพล,10,57,107,22,22,0,,,,k,1.7790108000626788,None,,,,,0,22,22,7,56.42859300004784,,,,,,,,,,,,,,,,,,,,,,,,,56.41712019999977,56.42859300004784,56.42859300004784,56.42859300004784,56.42859300004784,56.42859300004784,56.42859300004784,56.68780110008083,56.7375170000596,58.2218436000403,k,1.7790108000626788,None,,,test1,004,2025-09-26_09h38.55.738,Priming_gender,,2025.1.1,60.228083751062506,2025-09-26 09h39.09.309264 +0700,
None,None,None,None,women.png,วรรณา,11,67,137,23,23,0,,,,j,1.0667439999524504,None,,,,,0,23,23,37,58.260933900019154,,,,,,,,,,,,,,,,,,,,,,,,,58.24921999999788,58.260933900019154,58.260933900019154,58.260933900019154,58.260933900019154,58.260933900019154,58.260933900019154,58.53786759998184,58.57099290005863,59.337885400047526,j,1.0667439999524504,None,,,test1,004,2025-09-26_09h38.55.738,Priming_gender,,2025.1.1,60.228083751062506,2025-09-26 09h39.09.309264 +0700,
None,None,None,สุนิสา,men.png,สุนิสา,10,68,118,24,24,0,,,,k,1.598344299942255,None,,,,,0,24,24,18,59.3773653000826,,,,,,,,,,,,,,,,,,,,,,,,,59.36598970007617,59.3773653000826,59.3773653000826,59.3773653000826,59.3773653000826,59.3773653000826,59.3773653000826,59.637361900066026,59.68706140003633,60.98751250002533,k,1.598344299942255,None,,,test1,004,2025-09-26_09h38.55.738,Priming_gender,,2025.1.1,60.228083751062506,2025-09-26 09h39.09.309264 +0700,
None,None,None,None,women.png,ศักดิ์สิทธิ์,11,58,128,25,25,0,,,,j,1.3692942999769002,None,,,,,0,25,25,28,61.03114940004889,,,,,,,,,,,,,,,,,,,,,,,,,61.017210100078955,61.03114940004889,61.03114940004889,61.03114940004889,61.03114940004889,61.03114940004889,61.03114940004889,61.28801510005724,61.337401000084355,62.404408600064926,j,1.3692942999769002,None,,,test1,004,2025-09-26_09h38.55.738,Priming_gender,,2025.1.1,60.228083751062506,2025-09-26 09h39.09.309264 +0700,
None,None,None,สุพัตรา,men.png,สุพัตรา,10,63,113,26,26,0,,,,k,1.4427609000122175,None,,,,,0,26,26,13,62.44544959999621,,,,,,,,,,,,,,,,,,,,,,,,,62.43393820000347,62.44544959999621,62.44544959999621,62.44544959999621,62.44544959999621,62.44544959999621,62.44544959999621,62.720608700066805,62.7539531000657,63.90417480003089,k,1.4427609000122175,None,,,test1,004,2025-09-26_09h38.55.738,Priming_gender,,2025.1.1,60.228083751062506,2025-09-26 09h39.09.309264 +0700,
None,None,None,None,women.png,พิสิฐ,11,59,129,27,27,0,,,,j,1.4777567000128329,None,,,,,0,27,27,29,63.94662020006217,,,,,,,,,,,,,,,,,,,,,,,,,63.93538160005119,63.94662020006217,63.94662020006217,63.94662020006217,63.94662020006217,63.94662020006217,63.94662020006217,64.22077880008146,64.2539161000168,65.43726080004126,j,1.4777567000128329,None,,,test1,004,2025-09-26_09h38.55.738,Priming_gender,,2025.1.1,60.228083751062506,2025-09-26 09h39.09.309264 +0700,
นเรศ,พิมพ์ใจ,women.png,นเรศ,men.png,นเรศ,10,51,101,28,28,0,,,,k,1.8167732000583783,None,,,,,0,28,28,1,65.47914960002527,,,,,,,,,,,,,,,,,,,,,,,,,65.46599210007116,65.47914960002527,65.47914960002527,65.47914960002527,65.47914960002527,65.47914960002527,65.47914960002527,65.73730949999299,65.78846369998064,67.30394660006277,k,1.8167732000583783,None,,,test1,004,2025-09-26_09h38.55.738,Priming_gender,,2025.1.1,60.228083751062506,2025-09-26 09h39.09.309264 +0700,
None,None,None,ปัทมา,men.png,ปัทมา,10,69,119,29,29,0,,,,k,1.5988595999078825,None,,,,,0,29,29,19,67.34482950007077,,,,,,,,,,,,,,,,,,,,,,,,,67.33415960008278,67.34482950007077,67.34482950007077,67.34482950007077,67.34482950007077,67.34482950007077,67.34482950007077,67.60352110001259,67.65420230000746,68.95336649997625,k,1.5988595999078825,None,,,test1,004,2025-09-26_09h38.55.738,Priming_gender,,2025.1.1,60.228083751062506,2025-09-26 09h39.09.309264 +0700,
None,None,None,None,women.png,วรพล,11,57,127,30,30,0,,,,j,1.2617315000388771,None,,,,,0,30,30,27,68.99402970005758,,,,,,,,,,,,,,,,,,,,,,,,,68.98211510002147,68.99402970005758,68.99402970005758,68.99402970005758,68.99402970005758,68.99402970005758,68.99402970005758,69.2551624000771,69.30523070006166,70.27064830006566,j,1.2617315000388771,None,,,test1,004,2025-09-26_09h38.55.738,Priming_gender,,2025.1.1,60.228083751062506,2025-09-26 09h39.09.309264 +0700,
None,None,None,None,women.png,กฤษณะ,11,50,120,31,31,0,,,,j,2.2804990999866277,None,,,,,0,31,31,20,70.31125190004241,,,,,,,,,,,,,,,,,,,,,,,,,70.29939090006519,70.31125190004241,70.31125190004241,70.31125190004241,70.31125190004241,70.31125190004241,70.31125190004241,70.57207800005563,70.6201732000336,72.60361790005118,j,2.2804990999866277,None,,,test1,004,2025-09-26_09h38.55.738,Priming_gender,,2025.1.1,60.228083751062506,2025-09-26 09h39.09.309264 +0700,
ปริญญา,อาภรณ์,None,ปริญญา,men.png,ปริญญา,10,55,105,32,32,0,,,,k,1.6114668999798596,None,,,,,0,32,32,5,72.64420820004307,,,,,,,,,,,,,,,,,,,,,,,,,72.63205640006345,72.64420820004307,72.64420820004307,72.64420820004307,72.64420820004307,72.64420820004307,72.64420820004307,72.90444489999209,72.95282150001731,74.27002120006364,k,1.6114668999798596,None,,,test1,004,2025-09-26_09h38.55.738,Priming_gender,,2025.1.1,60.228083751062506,2025-09-26 09h39.09.309264 +0700,
None,None,None,วาสนา,men.png,วาสนา,10,62,112,33,33,0,,,,k,1.4307798000518233,None,,,,,0,33,33,12,74.3131484000478,,,,,,,,,,,,,,,,,,,,,,,,,74.3019538000226,74.3131484000478,74.3131484000478,74.3131484000478,74.3131484000478,74.3131484000478,74.3131484000478,74.57000680000056,74.62045819999184,75.75439380004536,k,1.4307798000518233,None,,,test1,004,2025-09-26_09h38.55.738,Priming_gender,,2025.1.1,60.228083751062506,2025-09-26 09h39.09.309264 +0700,
None,None,None,อาภรณ์,men.png,อาภรณ์,10,65,115,34,34,0,,,,k,0.8743056999519467,None,,,,,0,34,34,15,75.79743809998035,,,,,,,,,,,,,,,,,,,,,,,,,75.78696130006574,75.79743809998035,75.79743809998035,75.79743809998035,75.79743809998035,75.79743809998035,75.79743809998035,76.06991140008904,76.10254740004893,76.68624000006821,k,0.8743056999519467,None,,,test1,004,2025-09-26_09h38.55.738,Priming_gender,,2025.1.1,60.228083751062506,2025-09-26 09h39.09.309264 +0700,
ชัยวัฒน์,ศิริพร,None,ชัยวัฒน์,men.png,ชัยวัฒน์,10,54,104,35,35,0,,,,k,1.3463395000435412,None,,,,,0,35,35,4,76.73363110003993,,,,,,,,,,,,,,,,,,,,,,,,,76.72049480001442,76.73363110003993,76.73363110003993,76.73363110003993,76.73363110003993,76.73363110003993,76.73363110003993,76.98815180000383,77.03853770007845,78.08651589998044,k,1.3463395000435412,None,,,test1,004,2025-09-26_09h38.55.738,Priming_gender,,2025.1.1,60.228083751062506,2025-09-26 09h39.09.309264 +0700,
None,None,None,None,women.png,ชัยวัฒน์,11,54,124,36,36,0,,,,j,1.6939561000326648,None,,,,,0,36,36,24,78.12970819999464,,,,,,,,,,,,,,,,,,,,,,,,,78.11643170006573,78.12970819999464,78.12970819999464,78.12970819999464,78.12970819999464,78.12970819999464,78.12970819999464,78.38793179998174,78.43805440003052,79.83682710002176,j,1.6939561000326648,None,,,test1,004,2025-09-26_09h38.55.738,Priming_gender,,2025.1.1,60.228083751062506,2025-09-26 09h39.09.309264 +0700,
None,None,None,None,women.png,พิมพ์ใจ,11,61,131,37,37,0,,,,j,1.1638848000438884,None,,,,,0,37,37,31,79.87573540001176,,,,,,,,,,,,,,,,,,,,,,,,,79.8649270000169,79.87573540001176,79.87573540001176,79.87573540001176,79.87573540001176,79.87573540001176,79.87573540001176,80.13665340002626,80.18622120004147,81.05311900004745,j,1.1638848000438884,None,,,test1,004,2025-09-26_09h38.55.738,Priming_gender,,2025.1.1,60.228083751062506,2025-09-26 09h39.09.309264 +0700,
None,None,None,กาญจนา,men.png,กาญจนา,10,60,110,38,38,0,,,,k,1.0790921000298113,None,,,,,0,38,38,10,81.09706980001647,,,,,,,,,,,,,,,,,,,,,,,,,81.08419640001375,81.09706980001647,81.09706980001647,81.09706980001647,81.09706980001647,81.09706980001647,81.09706980001647,81.35297840007115,81.40230080008041,82.18641950003803,k,1.0790921000298113,None,,,test1,004,2025-09-26_09h38.55.738,Priming_gender,,2025.1.1,60.228083751062506,2025-09-26 09h39.09.309264 +0700,
None,None,None,None,women.png,ภูมิพัฒน์,11,56,126,39,39,0,,,,j,1.4209582000039518,None,,,,,0,39,39,26,82.22770510008559,,,,,,,,,,,,,,,,,,,,,,,,,82.21630650002044,82.22770510008559,82.22770510008559,82.22770510008559,82.22770510008559,82.22770510008559,82.22770510008559,82.48611320008058,82.53709810005967,83.65277819999028,j,1.4209582000039518,None,,,test1,004,2025-09-26_09h38.55.738,Priming_gender,,2025.1.1,60.228083751062506,2025-09-26 09h39.09.309264 +0700,
,,,,,,,,,,,,,,,,,,,,,,,,,,,,,,,,,,,,,,,,,,,,,,,,,,,,,,,,,,,,,,,,83.76474830007646,83.7649593000533,test1,004,2025-09-26_09h38.55.738,Priming_gender,,2025.1.1,60.228083751062506,2025-09-26 09h39.09.309264 +0700,
